[{"width":1470,"height":771,"webaudio":true,"browser":"chrome","browser_version":"141.0.0","mobile":false,"os":"Mac OS","fullscreen":true,"vsync_rate":49.75,"webcam":true,"microphone":true,"trial_type":"browser-check","trial_index":0,"plugin_version":"2.1.0","time_elapsed":1213,"subject_id":"90108","group":"Group2","full_date":"2025-12-06T21:41:25.757Z","date":"2025-12-06","time":"21:41:25"},{"success":true,"timeout":false,"failed_images":[],"failed_audio":[],"failed_video":[],"trial_type":"preload","trial_index":1,"plugin_version":"2.1.0","time_elapsed":3543,"subject_id":"90108","group":"Group2","full_date":"2025-12-06T21:41:25.757Z","date":"2025-12-06","time":"21:41:25"},{"rt":493541,"url":"SONA_consent_memorability.html","trial_type":"external-html","trial_index":2,"plugin_version":"2.1.0","time_elapsed":497137,"subject_id":"90108","group":"Group2","full_date":"2025-12-06T21:41:25.757Z","date":"2025-12-06","time":"21:41:25"},{"success":true,"rt":1214,"trial_type":"fullscreen","trial_index":3,"plugin_version":"2.1.0","time_elapsed":499356,"subject_id":"90108","group":"Group2","full_date":"2025-12-06T21:41:25.757Z","date":"2025-12-06","time":"21:41:25"},{"rt":22228,"stimulus":"<div style=\"max-width: 760px; margin: auto; font-size: 20px; line-height: 1.5;\">\n      <h1 style=\"text-align:center; font-size: 30px;\">Instructions</h1>\n      <p>\n        Welcome to the study on <b>visual memory</b>. This experiment consists of <b>two phases</b>: \n        a <b>study phase</b> and a <b>test phase</b>.\n      </p>\n      <p>\n        In the study phase, you will see a series of rock images along with their category labels.\n        The images will appear one at a time.\n        <b>Your task</b> is to learn the categories to which the rock images belong \n        and to remember each image as accurately as possible.\n      </p> \n      <p>\n        Note that we will repeat the study phase <b>3 times</b>, \n        so you will have multiple opportunities to see and remember each image.\n      </p>\n      <p>\n        After the study phase, <b>your memory will be tested</b>. \n        Additional instructions for the test phase will be provided at that time.\n      </p>\n      <p>\n        If your computer has multiple <b>language settings</b> (e.g., English and another language),\n        please make sure it is set to English before starting.\n      </p>\n      <p>\n        You can track your progress using the <b>completion bar</b> at the top of the screen. \n        Please note that the bar will refresh when the test phase begins \n        to give you an accurate sense of your progress in both phases.\n      </p> \n      <p>\n        Press the button below when you are ready to begin.\n      </p>\n    </div>","response":0,"trial_type":"html-button-response","trial_index":4,"plugin_version":"2.1.0","time_elapsed":521587,"subject_id":"90108","group":"Group2","full_date":"2025-12-06T21:41:25.757Z","date":"2025-12-06","time":"21:41:25"},{"rt":null,"stimulus":"<p style=\"font-size: 50px; margin: 0; text-align: center;\">+</p>","response":null,"trial_type":"html-keyboard-response","trial_index":5,"plugin_version":"2.1.0","time_elapsed":522591,"subject_id":"90108","group":"Group2","full_date":"2025-12-06T21:41:25.757Z","date":"2025-12-06","time":"21:41:25"},{"task":"memory_phase","broad_category":"M","image_png":"M_Quartzite_12.png","image_id":284,"category_name":"Quartzite","category":18,"distinct_rating":1.92,"distinct_type":"Bottom","rt":null,"stimulus":"Stimuli_Rocks480/M_Quartzite_12.png","response":null,"trial_type":"image-keyboard-response","trial_index":6,"plugin_version":"2.1.0","time_elapsed":525095,"subject_id":"90108","group":"Group2","full_date":"2025-12-06T21:41:25.757Z","date":"2025-12-06","time":"21:41:25"},{"rt":null,"stimulus":"<p style=\"font-size: 50px; margin: 0; text-align: center;\">+</p>","response":null,"trial_type":"html-keyboard-response","trial_index":7,"plugin_version":"2.1.0","time_elapsed":526098,"subject_id":"90108","group":"Group2","full_date":"2025-12-06T21:41:25.757Z","date":"2025-12-06","time":"21:41:25"},{"task":"memory_phase","broad_category":"M","image_png":"M_Phyllite_13.png","image_id":269,"category_name":"Phyllite","category":17,"distinct_rating":2.8,"distinct_type":"Bottom","rt":null,"stimulus":"Stimuli_Rocks480/M_Phyllite_13.png","response":null,"trial_type":"image-keyboard-response","trial_index":8,"plugin_version":"2.1.0","time_elapsed":528602,"subject_id":"90108","group":"Group2","full_date":"2025-12-06T21:41:25.757Z","date":"2025-12-06","time":"21:41:25"},{"rt":null,"stimulus":"<p style=\"font-size: 50px; margin: 0; text-align: center;\">+</p>","response":null,"trial_type":"html-keyboard-response","trial_index":9,"plugin_version":"2.1.0","time_elapsed":529605,"subject_id":"90108","group":"Group2","full_date":"2025-12-06T21:41:25.757Z","date":"2025-12-06","time":"21:41:25"},{"task":"memory_phase","broad_category":"S","image_png":"S_Dolomite_16.png","image_id":400,"category_name":"Dolomite","category":25,"distinct_rating":1.71,"distinct_type":"Bottom","rt":null,"stimulus":"Stimuli_Rocks480/S_Dolomite_16.png","response":null,"trial_type":"image-keyboard-response","trial_index":10,"plugin_version":"2.1.0","time_elapsed":532109,"subject_id":"90108","group":"Group2","full_date":"2025-12-06T21:41:25.757Z","date":"2025-12-06","time":"21:41:25"},{"rt":null,"stimulus":"<p style=\"font-size: 50px; margin: 0; text-align: center;\">+</p>","response":null,"trial_type":"html-keyboard-response","trial_index":11,"plugin_version":"2.1.0","time_elapsed":533111,"subject_id":"90108","group":"Group2","full_date":"2025-12-06T21:41:25.757Z","date":"2025-12-06","time":"21:41:25"},{"task":"memory_phase","broad_category":"M","image_png":"M_Gneiss_15.png","image_id":207,"category_name":"Gneiss","category":13,"distinct_rating":3.11,"distinct_type":"Bottom","rt":null,"stimulus":"Stimuli_Rocks480/M_Gneiss_15.png","response":null,"trial_type":"image-keyboard-response","trial_index":12,"plugin_version":"2.1.0","time_elapsed":535615,"subject_id":"90108","group":"Group2","full_date":"2025-12-06T21:41:25.757Z","date":"2025-12-06","time":"21:41:25"},{"rt":null,"stimulus":"<p style=\"font-size: 50px; margin: 0; text-align: center;\">+</p>","response":null,"trial_type":"html-keyboard-response","trial_index":13,"plugin_version":"2.1.0","time_elapsed":536617,"subject_id":"90108","group":"Group2","full_date":"2025-12-06T21:41:25.757Z","date":"2025-12-06","time":"21:41:25"},{"task":"memory_phase","broad_category":"M","image_png":"M_Phyllite_02.png","image_id":258,"category_name":"Phyllite","category":17,"distinct_rating":2.89,"distinct_type":"Bottom","rt":null,"stimulus":"Stimuli_Rocks480/M_Phyllite_02.png","response":null,"trial_type":"image-keyboard-response","trial_index":14,"plugin_version":"2.1.0","time_elapsed":539121,"subject_id":"90108","group":"Group2","full_date":"2025-12-06T21:41:25.757Z","date":"2025-12-06","time":"21:41:25"},{"rt":null,"stimulus":"<p style=\"font-size: 50px; margin: 0; text-align: center;\">+</p>","response":null,"trial_type":"html-keyboard-response","trial_index":15,"plugin_version":"2.1.0","time_elapsed":540124,"subject_id":"90108","group":"Group2","full_date":"2025-12-06T21:41:25.757Z","date":"2025-12-06","time":"21:41:25"},{"task":"memory_phase","broad_category":"I","image_png":"I_Basalt_10.png","image_id":26,"category_name":"Basalt","category":2,"distinct_rating":2.76,"distinct_type":"Bottom","rt":null,"stimulus":"Stimuli_Rocks480/I_Basalt_10.png","response":null,"trial_type":"image-keyboard-response","trial_index":16,"plugin_version":"2.1.0","time_elapsed":542627,"subject_id":"90108","group":"Group2","full_date":"2025-12-06T21:41:25.757Z","date":"2025-12-06","time":"21:41:25"},{"rt":null,"stimulus":"<p style=\"font-size: 50px; margin: 0; text-align: center;\">+</p>","response":null,"trial_type":"html-keyboard-response","trial_index":17,"plugin_version":"2.1.0","time_elapsed":543630,"subject_id":"90108","group":"Group2","full_date":"2025-12-06T21:41:25.757Z","date":"2025-12-06","time":"21:41:25"},{"task":"memory_phase","broad_category":"S","image_png":"S_Rock Salt_15.png","image_id":447,"category_name":"Rock Salt","category":28,"distinct_rating":7.79,"distinct_type":"Top","rt":null,"stimulus":"Stimuli_Rocks480/S_Rock Salt_15.png","response":null,"trial_type":"image-keyboard-response","trial_index":18,"plugin_version":"2.1.0","time_elapsed":546134,"subject_id":"90108","group":"Group2","full_date":"2025-12-06T21:41:25.757Z","date":"2025-12-06","time":"21:41:25"},{"rt":null,"stimulus":"<p style=\"font-size: 50px; margin: 0; text-align: center;\">+</p>","response":null,"trial_type":"html-keyboard-response","trial_index":19,"plugin_version":"2.1.0","time_elapsed":547137,"subject_id":"90108","group":"Group2","full_date":"2025-12-06T21:41:25.757Z","date":"2025-12-06","time":"21:41:25"},{"task":"memory_phase","broad_category":"I","image_png":"I_Pumice_01.png","image_id":129,"category_name":"Pumice","category":9,"distinct_rating":3.25,"distinct_type":"Bottom","rt":null,"stimulus":"Stimuli_Rocks480/I_Pumice_01.png","response":null,"trial_type":"image-keyboard-response","trial_index":20,"plugin_version":"2.1.0","time_elapsed":549640,"subject_id":"90108","group":"Group2","full_date":"2025-12-06T21:41:25.757Z","date":"2025-12-06","time":"21:41:25"},{"rt":null,"stimulus":"<p style=\"font-size: 50px; margin: 0; text-align: center;\">+</p>","response":null,"trial_type":"html-keyboard-response","trial_index":21,"plugin_version":"2.1.0","time_elapsed":550643,"subject_id":"90108","group":"Group2","full_date":"2025-12-06T21:41:25.757Z","date":"2025-12-06","time":"21:41:25"},{"task":"memory_phase","broad_category":"I","image_png":"I_Andesite_04.png","image_id":4,"category_name":"Andesite","category":1,"distinct_rating":3.18,"distinct_type":"Bottom","rt":null,"stimulus":"Stimuli_Rocks480/I_Andesite_04.png","response":null,"trial_type":"image-keyboard-response","trial_index":22,"plugin_version":"2.1.0","time_elapsed":553146,"subject_id":"90108","group":"Group2","full_date":"2025-12-06T21:41:25.757Z","date":"2025-12-06","time":"21:41:25"},{"rt":null,"stimulus":"<p style=\"font-size: 50px; margin: 0; text-align: center;\">+</p>","response":null,"trial_type":"html-keyboard-response","trial_index":23,"plugin_version":"2.1.0","time_elapsed":554149,"subject_id":"90108","group":"Group2","full_date":"2025-12-06T21:41:25.757Z","date":"2025-12-06","time":"21:41:25"},{"task":"memory_phase","broad_category":"I","image_png":"I_Diorite_01.png","image_id":33,"category_name":"Diorite","category":3,"distinct_rating":2.97,"distinct_type":"Bottom","rt":null,"stimulus":"Stimuli_Rocks480/I_Diorite_01.png","response":null,"trial_type":"image-keyboard-response","trial_index":24,"plugin_version":"2.1.0","time_elapsed":556652,"subject_id":"90108","group":"Group2","full_date":"2025-12-06T21:41:25.757Z","date":"2025-12-06","time":"21:41:25"},{"rt":null,"stimulus":"<p style=\"font-size: 50px; margin: 0; text-align: center;\">+</p>","response":null,"trial_type":"html-keyboard-response","trial_index":25,"plugin_version":"2.1.0","time_elapsed":557654,"subject_id":"90108","group":"Group2","full_date":"2025-12-06T21:41:25.757Z","date":"2025-12-06","time":"21:41:25"},{"task":"memory_phase","broad_category":"I","image_png":"I_Andesite_09.png","image_id":9,"category_name":"Andesite","category":1,"distinct_rating":2.49,"distinct_type":"Bottom","rt":null,"stimulus":"Stimuli_Rocks480/I_Andesite_09.png","response":null,"trial_type":"image-keyboard-response","trial_index":26,"plugin_version":"2.1.0","time_elapsed":560157,"subject_id":"90108","group":"Group2","full_date":"2025-12-06T21:41:25.757Z","date":"2025-12-06","time":"21:41:25"},{"rt":null,"stimulus":"<p style=\"font-size: 50px; margin: 0; text-align: center;\">+</p>","response":null,"trial_type":"html-keyboard-response","trial_index":27,"plugin_version":"2.1.0","time_elapsed":561160,"subject_id":"90108","group":"Group2","full_date":"2025-12-06T21:41:25.757Z","date":"2025-12-06","time":"21:41:25"},{"task":"memory_phase","broad_category":"I","image_png":"I_Basalt_13.png","image_id":29,"category_name":"Basalt","category":2,"distinct_rating":2.68,"distinct_type":"Bottom","rt":null,"stimulus":"Stimuli_Rocks480/I_Basalt_13.png","response":null,"trial_type":"image-keyboard-response","trial_index":28,"plugin_version":"2.1.0","time_elapsed":563664,"subject_id":"90108","group":"Group2","full_date":"2025-12-06T21:41:25.757Z","date":"2025-12-06","time":"21:41:25"},{"rt":null,"stimulus":"<p style=\"font-size: 50px; margin: 0; text-align: center;\">+</p>","response":null,"trial_type":"html-keyboard-response","trial_index":29,"plugin_version":"2.1.0","time_elapsed":564666,"subject_id":"90108","group":"Group2","full_date":"2025-12-06T21:41:25.757Z","date":"2025-12-06","time":"21:41:25"},{"task":"memory_phase","broad_category":"S","image_png":"S_Dolomite_01.png","image_id":385,"category_name":"Dolomite","category":25,"distinct_rating":1.43,"distinct_type":"Bottom","rt":null,"stimulus":"Stimuli_Rocks480/S_Dolomite_01.png","response":null,"trial_type":"image-keyboard-response","trial_index":30,"plugin_version":"2.1.0","time_elapsed":567172,"subject_id":"90108","group":"Group2","full_date":"2025-12-06T21:41:25.757Z","date":"2025-12-06","time":"21:41:25"},{"rt":null,"stimulus":"<p style=\"font-size: 50px; margin: 0; text-align: center;\">+</p>","response":null,"trial_type":"html-keyboard-response","trial_index":31,"plugin_version":"2.1.0","time_elapsed":568175,"subject_id":"90108","group":"Group2","full_date":"2025-12-06T21:41:25.757Z","date":"2025-12-06","time":"21:41:25"},{"task":"memory_phase","broad_category":"M","image_png":"M_Gneiss_10.png","image_id":202,"category_name":"Gneiss","category":13,"distinct_rating":3.09,"distinct_type":"Bottom","rt":null,"stimulus":"Stimuli_Rocks480/M_Gneiss_10.png","response":null,"trial_type":"image-keyboard-response","trial_index":32,"plugin_version":"2.1.0","time_elapsed":570678,"subject_id":"90108","group":"Group2","full_date":"2025-12-06T21:41:25.757Z","date":"2025-12-06","time":"21:41:25"},{"rt":null,"stimulus":"<p style=\"font-size: 50px; margin: 0; text-align: center;\">+</p>","response":null,"trial_type":"html-keyboard-response","trial_index":33,"plugin_version":"2.1.0","time_elapsed":571681,"subject_id":"90108","group":"Group2","full_date":"2025-12-06T21:41:25.757Z","date":"2025-12-06","time":"21:41:25"},{"task":"memory_phase","broad_category":"S","image_png":"S_Shale_07.png","image_id":471,"category_name":"Shale","category":30,"distinct_rating":2.73,"distinct_type":"Bottom","rt":null,"stimulus":"Stimuli_Rocks480/S_Shale_07.png","response":null,"trial_type":"image-keyboard-response","trial_index":34,"plugin_version":"2.1.0","time_elapsed":574184,"subject_id":"90108","group":"Group2","full_date":"2025-12-06T21:41:25.757Z","date":"2025-12-06","time":"21:41:25"},{"rt":null,"stimulus":"<p style=\"font-size: 50px; margin: 0; text-align: center;\">+</p>","response":null,"trial_type":"html-keyboard-response","trial_index":35,"plugin_version":"2.1.0","time_elapsed":575187,"subject_id":"90108","group":"Group2","full_date":"2025-12-06T21:41:25.757Z","date":"2025-12-06","time":"21:41:25"},{"task":"memory_phase","broad_category":"S","image_png":"S_Dolomite_07.png","image_id":391,"category_name":"Dolomite","category":25,"distinct_rating":1.73,"distinct_type":"Bottom","rt":null,"stimulus":"Stimuli_Rocks480/S_Dolomite_07.png","response":null,"trial_type":"image-keyboard-response","trial_index":36,"plugin_version":"2.1.0","time_elapsed":577690,"subject_id":"90108","group":"Group2","full_date":"2025-12-06T21:41:25.757Z","date":"2025-12-06","time":"21:41:25"},{"rt":null,"stimulus":"<p style=\"font-size: 50px; margin: 0; text-align: center;\">+</p>","response":null,"trial_type":"html-keyboard-response","trial_index":37,"plugin_version":"2.1.0","time_elapsed":578692,"subject_id":"90108","group":"Group2","full_date":"2025-12-06T21:41:25.757Z","date":"2025-12-06","time":"21:41:25"},{"task":"memory_phase","broad_category":"I","image_png":"I_Pegmatite_11.png","image_id":107,"category_name":"Pegmatite","category":7,"distinct_rating":7.11,"distinct_type":"Top","rt":null,"stimulus":"Stimuli_Rocks480/I_Pegmatite_11.png","response":null,"trial_type":"image-keyboard-response","trial_index":38,"plugin_version":"2.1.0","time_elapsed":581196,"subject_id":"90108","group":"Group2","full_date":"2025-12-06T21:41:25.757Z","date":"2025-12-06","time":"21:41:25"},{"rt":null,"stimulus":"<p style=\"font-size: 50px; margin: 0; text-align: center;\">+</p>","response":null,"trial_type":"html-keyboard-response","trial_index":39,"plugin_version":"2.1.0","time_elapsed":582198,"subject_id":"90108","group":"Group2","full_date":"2025-12-06T21:41:25.757Z","date":"2025-12-06","time":"21:41:25"},{"task":"memory_phase","broad_category":"I","image_png":"I_Peridotite_13.png","image_id":125,"category_name":"Peridotite","category":8,"distinct_rating":7.28,"distinct_type":"Top","rt":null,"stimulus":"Stimuli_Rocks480/I_Peridotite_13.png","response":null,"trial_type":"image-keyboard-response","trial_index":40,"plugin_version":"2.1.0","time_elapsed":584701,"subject_id":"90108","group":"Group2","full_date":"2025-12-06T21:41:25.757Z","date":"2025-12-06","time":"21:41:25"},{"rt":null,"stimulus":"<p style=\"font-size: 50px; margin: 0; text-align: center;\">+</p>","response":null,"trial_type":"html-keyboard-response","trial_index":41,"plugin_version":"2.1.0","time_elapsed":585704,"subject_id":"90108","group":"Group2","full_date":"2025-12-06T21:41:25.757Z","date":"2025-12-06","time":"21:41:25"},{"task":"memory_phase","broad_category":"I","image_png":"I_Diorite_10.png","image_id":42,"category_name":"Diorite","category":3,"distinct_rating":2.84,"distinct_type":"Bottom","rt":null,"stimulus":"Stimuli_Rocks480/I_Diorite_10.png","response":null,"trial_type":"image-keyboard-response","trial_index":42,"plugin_version":"2.1.0","time_elapsed":588207,"subject_id":"90108","group":"Group2","full_date":"2025-12-06T21:41:25.757Z","date":"2025-12-06","time":"21:41:25"},{"rt":null,"stimulus":"<p style=\"font-size: 50px; margin: 0; text-align: center;\">+</p>","response":null,"trial_type":"html-keyboard-response","trial_index":43,"plugin_version":"2.1.0","time_elapsed":589210,"subject_id":"90108","group":"Group2","full_date":"2025-12-06T21:41:25.757Z","date":"2025-12-06","time":"21:41:25"},{"task":"memory_phase","broad_category":"I","image_png":"I_Pumice_13.png","image_id":141,"category_name":"Pumice","category":9,"distinct_rating":3.12,"distinct_type":"Bottom","rt":null,"stimulus":"Stimuli_Rocks480/I_Pumice_13.png","response":null,"trial_type":"image-keyboard-response","trial_index":44,"plugin_version":"2.1.0","time_elapsed":591713,"subject_id":"90108","group":"Group2","full_date":"2025-12-06T21:41:25.757Z","date":"2025-12-06","time":"21:41:25"},{"rt":null,"stimulus":"<p style=\"font-size: 50px; margin: 0; text-align: center;\">+</p>","response":null,"trial_type":"html-keyboard-response","trial_index":45,"plugin_version":"2.1.0","time_elapsed":592715,"subject_id":"90108","group":"Group2","full_date":"2025-12-06T21:41:25.757Z","date":"2025-12-06","time":"21:41:25"},{"task":"memory_phase","broad_category":"M","image_png":"M_Marble_14.png","image_id":238,"category_name":"Marble","category":15,"distinct_rating":3.31,"distinct_type":"Bottom","rt":null,"stimulus":"Stimuli_Rocks480/M_Marble_14.png","response":null,"trial_type":"image-keyboard-response","trial_index":46,"plugin_version":"2.1.0","time_elapsed":595219,"subject_id":"90108","group":"Group2","full_date":"2025-12-06T21:41:25.757Z","date":"2025-12-06","time":"21:41:25"},{"rt":null,"stimulus":"<p style=\"font-size: 50px; margin: 0; text-align: center;\">+</p>","response":null,"trial_type":"html-keyboard-response","trial_index":47,"plugin_version":"2.1.0","time_elapsed":596221,"subject_id":"90108","group":"Group2","full_date":"2025-12-06T21:41:25.757Z","date":"2025-12-06","time":"21:41:25"},{"task":"memory_phase","broad_category":"M","image_png":"M_Quartzite_07.png","image_id":279,"category_name":"Quartzite","category":18,"distinct_rating":1.97,"distinct_type":"Bottom","rt":null,"stimulus":"Stimuli_Rocks480/M_Quartzite_07.png","response":null,"trial_type":"image-keyboard-response","trial_index":48,"plugin_version":"2.1.0","time_elapsed":598724,"subject_id":"90108","group":"Group2","full_date":"2025-12-06T21:41:25.757Z","date":"2025-12-06","time":"21:41:25"},{"rt":null,"stimulus":"<p style=\"font-size: 50px; margin: 0; text-align: center;\">+</p>","response":null,"trial_type":"html-keyboard-response","trial_index":49,"plugin_version":"2.1.0","time_elapsed":599726,"subject_id":"90108","group":"Group2","full_date":"2025-12-06T21:41:25.757Z","date":"2025-12-06","time":"21:41:25"},{"task":"memory_phase","broad_category":"I","image_png":"I_Pegmatite_03.png","image_id":99,"category_name":"Pegmatite","category":7,"distinct_rating":7.24,"distinct_type":"Top","rt":null,"stimulus":"Stimuli_Rocks480/I_Pegmatite_03.png","response":null,"trial_type":"image-keyboard-response","trial_index":50,"plugin_version":"2.1.0","time_elapsed":602229,"subject_id":"90108","group":"Group2","full_date":"2025-12-06T21:41:25.757Z","date":"2025-12-06","time":"21:41:25"},{"rt":null,"stimulus":"<p style=\"font-size: 50px; margin: 0; text-align: center;\">+</p>","response":null,"trial_type":"html-keyboard-response","trial_index":51,"plugin_version":"2.1.0","time_elapsed":603231,"subject_id":"90108","group":"Group2","full_date":"2025-12-06T21:41:25.757Z","date":"2025-12-06","time":"21:41:25"},{"task":"memory_phase","broad_category":"S","image_png":"S_Shale_02.png","image_id":466,"category_name":"Shale","category":30,"distinct_rating":2.9,"distinct_type":"Bottom","rt":null,"stimulus":"Stimuli_Rocks480/S_Shale_02.png","response":null,"trial_type":"image-keyboard-response","trial_index":52,"plugin_version":"2.1.0","time_elapsed":605734,"subject_id":"90108","group":"Group2","full_date":"2025-12-06T21:41:25.757Z","date":"2025-12-06","time":"21:41:25"},{"rt":null,"stimulus":"<p style=\"font-size: 50px; margin: 0; text-align: center;\">+</p>","response":null,"trial_type":"html-keyboard-response","trial_index":53,"plugin_version":"2.1.0","time_elapsed":606736,"subject_id":"90108","group":"Group2","full_date":"2025-12-06T21:41:25.757Z","date":"2025-12-06","time":"21:41:25"},{"task":"memory_phase","broad_category":"M","image_png":"M_Marble_02.png","image_id":226,"category_name":"Marble","category":15,"distinct_rating":3.2,"distinct_type":"Bottom","rt":null,"stimulus":"Stimuli_Rocks480/M_Marble_02.png","response":null,"trial_type":"image-keyboard-response","trial_index":54,"plugin_version":"2.1.0","time_elapsed":609240,"subject_id":"90108","group":"Group2","full_date":"2025-12-06T21:41:25.757Z","date":"2025-12-06","time":"21:41:25"},{"rt":2535,"stimulus":"<p style=\"max-width: 760px; margin: auto; font-size: 35px; line-height: 1.5;\">Press SPACE to continue study phase</p>","response":" ","trial_type":"html-keyboard-response","trial_index":55,"plugin_version":"2.1.0","time_elapsed":611776,"subject_id":"90108","group":"Group2","full_date":"2025-12-06T21:41:25.757Z","date":"2025-12-06","time":"21:41:25"},{"rt":null,"stimulus":"<p style=\"font-size: 50px; margin: 0; text-align: center;\">+</p>","response":null,"trial_type":"html-keyboard-response","trial_index":56,"plugin_version":"2.1.0","time_elapsed":612779,"subject_id":"90108","group":"Group2","full_date":"2025-12-06T21:41:25.757Z","date":"2025-12-06","time":"21:41:25"},{"task":"memory_phase","broad_category":"I","image_png":"I_Obsidian_06.png","image_id":86,"category_name":"Obsidian","category":6,"distinct_rating":8.01,"distinct_type":"Top","rt":null,"stimulus":"Stimuli_Rocks480/I_Obsidian_06.png","response":null,"trial_type":"image-keyboard-response","trial_index":57,"plugin_version":"2.1.0","time_elapsed":615282,"subject_id":"90108","group":"Group2","full_date":"2025-12-06T21:41:25.757Z","date":"2025-12-06","time":"21:41:25"},{"rt":null,"stimulus":"<p style=\"font-size: 50px; margin: 0; text-align: center;\">+</p>","response":null,"trial_type":"html-keyboard-response","trial_index":58,"plugin_version":"2.1.0","time_elapsed":616283,"subject_id":"90108","group":"Group2","full_date":"2025-12-06T21:41:25.757Z","date":"2025-12-06","time":"21:41:25"},{"task":"memory_phase","broad_category":"I","image_png":"I_Basalt_08.png","image_id":24,"category_name":"Basalt","category":2,"distinct_rating":2.31,"distinct_type":"Bottom","rt":null,"stimulus":"Stimuli_Rocks480/I_Basalt_08.png","response":null,"trial_type":"image-keyboard-response","trial_index":59,"plugin_version":"2.1.0","time_elapsed":618787,"subject_id":"90108","group":"Group2","full_date":"2025-12-06T21:41:25.757Z","date":"2025-12-06","time":"21:41:25"},{"rt":null,"stimulus":"<p style=\"font-size: 50px; margin: 0; text-align: center;\">+</p>","response":null,"trial_type":"html-keyboard-response","trial_index":60,"plugin_version":"2.1.0","time_elapsed":619790,"subject_id":"90108","group":"Group2","full_date":"2025-12-06T21:41:25.757Z","date":"2025-12-06","time":"21:41:25"},{"task":"memory_phase","broad_category":"I","image_png":"I_Rhyolite_05.png","image_id":149,"category_name":"Rhyolite","category":10,"distinct_rating":3.02,"distinct_type":"Bottom","rt":null,"stimulus":"Stimuli_Rocks480/I_Rhyolite_05.png","response":null,"trial_type":"image-keyboard-response","trial_index":61,"plugin_version":"2.1.0","time_elapsed":622293,"subject_id":"90108","group":"Group2","full_date":"2025-12-06T21:41:25.757Z","date":"2025-12-06","time":"21:41:25"},{"rt":null,"stimulus":"<p style=\"font-size: 50px; margin: 0; text-align: center;\">+</p>","response":null,"trial_type":"html-keyboard-response","trial_index":62,"plugin_version":"2.1.0","time_elapsed":623295,"subject_id":"90108","group":"Group2","full_date":"2025-12-06T21:41:25.757Z","date":"2025-12-06","time":"21:41:25"},{"task":"memory_phase","broad_category":"I","image_png":"I_Diorite_15.png","image_id":47,"category_name":"Diorite","category":3,"distinct_rating":3.05,"distinct_type":"Bottom","rt":null,"stimulus":"Stimuli_Rocks480/I_Diorite_15.png","response":null,"trial_type":"image-keyboard-response","trial_index":63,"plugin_version":"2.1.0","time_elapsed":625798,"subject_id":"90108","group":"Group2","full_date":"2025-12-06T21:41:25.757Z","date":"2025-12-06","time":"21:41:25"},{"rt":null,"stimulus":"<p style=\"font-size: 50px; margin: 0; text-align: center;\">+</p>","response":null,"trial_type":"html-keyboard-response","trial_index":64,"plugin_version":"2.1.0","time_elapsed":626800,"subject_id":"90108","group":"Group2","full_date":"2025-12-06T21:41:25.757Z","date":"2025-12-06","time":"21:41:25"},{"task":"memory_phase","broad_category":"I","image_png":"I_Pumice_14.png","image_id":142,"category_name":"Pumice","category":9,"distinct_rating":3.22,"distinct_type":"Bottom","rt":null,"stimulus":"Stimuli_Rocks480/I_Pumice_14.png","response":null,"trial_type":"image-keyboard-response","trial_index":65,"plugin_version":"2.1.0","time_elapsed":629303,"subject_id":"90108","group":"Group2","full_date":"2025-12-06T21:41:25.757Z","date":"2025-12-06","time":"21:41:25"},{"rt":null,"stimulus":"<p style=\"font-size: 50px; margin: 0; text-align: center;\">+</p>","response":null,"trial_type":"html-keyboard-response","trial_index":66,"plugin_version":"2.1.0","time_elapsed":630306,"subject_id":"90108","group":"Group2","full_date":"2025-12-06T21:41:25.757Z","date":"2025-12-06","time":"21:41:25"},{"task":"memory_phase","broad_category":"S","image_png":"S_Sandstone_08.png","image_id":456,"category_name":"Sandstone","category":29,"distinct_rating":1.5,"distinct_type":"Bottom","rt":null,"stimulus":"Stimuli_Rocks480/S_Sandstone_08.png","response":null,"trial_type":"image-keyboard-response","trial_index":67,"plugin_version":"2.1.0","time_elapsed":632808,"subject_id":"90108","group":"Group2","full_date":"2025-12-06T21:41:25.757Z","date":"2025-12-06","time":"21:41:25"},{"rt":null,"stimulus":"<p style=\"font-size: 50px; margin: 0; text-align: center;\">+</p>","response":null,"trial_type":"html-keyboard-response","trial_index":68,"plugin_version":"2.1.0","time_elapsed":633810,"subject_id":"90108","group":"Group2","full_date":"2025-12-06T21:41:25.757Z","date":"2025-12-06","time":"21:41:25"},{"task":"memory_phase","broad_category":"M","image_png":"M_Slate_04.png","image_id":308,"category_name":"Slate","category":20,"distinct_rating":2.2,"distinct_type":"Bottom","rt":null,"stimulus":"Stimuli_Rocks480/M_Slate_04.png","response":null,"trial_type":"image-keyboard-response","trial_index":69,"plugin_version":"2.1.0","time_elapsed":636313,"subject_id":"90108","group":"Group2","full_date":"2025-12-06T21:41:25.757Z","date":"2025-12-06","time":"21:41:25"},{"rt":null,"stimulus":"<p style=\"font-size: 50px; margin: 0; text-align: center;\">+</p>","response":null,"trial_type":"html-keyboard-response","trial_index":70,"plugin_version":"2.1.0","time_elapsed":637315,"subject_id":"90108","group":"Group2","full_date":"2025-12-06T21:41:25.757Z","date":"2025-12-06","time":"21:41:25"},{"task":"memory_phase","broad_category":"M","image_png":"M_Marble_03.png","image_id":227,"category_name":"Marble","category":15,"distinct_rating":2.67,"distinct_type":"Bottom","rt":null,"stimulus":"Stimuli_Rocks480/M_Marble_03.png","response":null,"trial_type":"image-keyboard-response","trial_index":71,"plugin_version":"2.1.0","time_elapsed":639818,"subject_id":"90108","group":"Group2","full_date":"2025-12-06T21:41:25.757Z","date":"2025-12-06","time":"21:41:25"},{"rt":null,"stimulus":"<p style=\"font-size: 50px; margin: 0; text-align: center;\">+</p>","response":null,"trial_type":"html-keyboard-response","trial_index":72,"plugin_version":"2.1.0","time_elapsed":640820,"subject_id":"90108","group":"Group2","full_date":"2025-12-06T21:41:25.757Z","date":"2025-12-06","time":"21:41:25"},{"task":"memory_phase","broad_category":"I","image_png":"I_Gabbro_12.png","image_id":60,"category_name":"Gabbro","category":4,"distinct_rating":2.6,"distinct_type":"Bottom","rt":null,"stimulus":"Stimuli_Rocks480/I_Gabbro_12.png","response":null,"trial_type":"image-keyboard-response","trial_index":73,"plugin_version":"2.1.0","time_elapsed":643323,"subject_id":"90108","group":"Group2","full_date":"2025-12-06T21:41:25.757Z","date":"2025-12-06","time":"21:41:25"},{"rt":null,"stimulus":"<p style=\"font-size: 50px; margin: 0; text-align: center;\">+</p>","response":null,"trial_type":"html-keyboard-response","trial_index":74,"plugin_version":"2.1.0","time_elapsed":644324,"subject_id":"90108","group":"Group2","full_date":"2025-12-06T21:41:25.757Z","date":"2025-12-06","time":"21:41:25"},{"task":"memory_phase","broad_category":"I","image_png":"I_Gabbro_14.png","image_id":62,"category_name":"Gabbro","category":4,"distinct_rating":2.95,"distinct_type":"Bottom","rt":null,"stimulus":"Stimuli_Rocks480/I_Gabbro_14.png","response":null,"trial_type":"image-keyboard-response","trial_index":75,"plugin_version":"2.1.0","time_elapsed":646828,"subject_id":"90108","group":"Group2","full_date":"2025-12-06T21:41:25.757Z","date":"2025-12-06","time":"21:41:25"},{"rt":null,"stimulus":"<p style=\"font-size: 50px; margin: 0; text-align: center;\">+</p>","response":null,"trial_type":"html-keyboard-response","trial_index":76,"plugin_version":"2.1.0","time_elapsed":647831,"subject_id":"90108","group":"Group2","full_date":"2025-12-06T21:41:25.757Z","date":"2025-12-06","time":"21:41:25"},{"task":"memory_phase","broad_category":"S","image_png":"S_Conglomerate_14.png","image_id":382,"category_name":"Conglomerate","category":24,"distinct_rating":6.86,"distinct_type":"Top","rt":null,"stimulus":"Stimuli_Rocks480/S_Conglomerate_14.png","response":null,"trial_type":"image-keyboard-response","trial_index":77,"plugin_version":"2.1.0","time_elapsed":650334,"subject_id":"90108","group":"Group2","full_date":"2025-12-06T21:41:25.757Z","date":"2025-12-06","time":"21:41:25"},{"rt":null,"stimulus":"<p style=\"font-size: 50px; margin: 0; text-align: center;\">+</p>","response":null,"trial_type":"html-keyboard-response","trial_index":78,"plugin_version":"2.1.0","time_elapsed":651336,"subject_id":"90108","group":"Group2","full_date":"2025-12-06T21:41:25.757Z","date":"2025-12-06","time":"21:41:25"},{"task":"memory_phase","broad_category":"M","image_png":"M_Quartzite_15.png","image_id":287,"category_name":"Quartzite","category":18,"distinct_rating":2.19,"distinct_type":"Bottom","rt":null,"stimulus":"Stimuli_Rocks480/M_Quartzite_15.png","response":null,"trial_type":"image-keyboard-response","trial_index":79,"plugin_version":"2.1.0","time_elapsed":653839,"subject_id":"90108","group":"Group2","full_date":"2025-12-06T21:41:25.757Z","date":"2025-12-06","time":"21:41:25"},{"rt":null,"stimulus":"<p style=\"font-size: 50px; margin: 0; text-align: center;\">+</p>","response":null,"trial_type":"html-keyboard-response","trial_index":80,"plugin_version":"2.1.0","time_elapsed":654841,"subject_id":"90108","group":"Group2","full_date":"2025-12-06T21:41:25.757Z","date":"2025-12-06","time":"21:41:25"},{"task":"memory_phase","broad_category":"M","image_png":"M_Phyllite_05.png","image_id":261,"category_name":"Phyllite","category":17,"distinct_rating":2.14,"distinct_type":"Bottom","rt":null,"stimulus":"Stimuli_Rocks480/M_Phyllite_05.png","response":null,"trial_type":"image-keyboard-response","trial_index":81,"plugin_version":"2.1.0","time_elapsed":657344,"subject_id":"90108","group":"Group2","full_date":"2025-12-06T21:41:25.757Z","date":"2025-12-06","time":"21:41:25"},{"rt":null,"stimulus":"<p style=\"font-size: 50px; margin: 0; text-align: center;\">+</p>","response":null,"trial_type":"html-keyboard-response","trial_index":82,"plugin_version":"2.1.0","time_elapsed":658347,"subject_id":"90108","group":"Group2","full_date":"2025-12-06T21:41:25.757Z","date":"2025-12-06","time":"21:41:25"},{"task":"memory_phase","broad_category":"I","image_png":"I_Andesite_03.png","image_id":3,"category_name":"Andesite","category":1,"distinct_rating":3.17,"distinct_type":"Bottom","rt":null,"stimulus":"Stimuli_Rocks480/I_Andesite_03.png","response":null,"trial_type":"image-keyboard-response","trial_index":83,"plugin_version":"2.1.0","time_elapsed":660850,"subject_id":"90108","group":"Group2","full_date":"2025-12-06T21:41:25.757Z","date":"2025-12-06","time":"21:41:25"},{"rt":null,"stimulus":"<p style=\"font-size: 50px; margin: 0; text-align: center;\">+</p>","response":null,"trial_type":"html-keyboard-response","trial_index":84,"plugin_version":"2.1.0","time_elapsed":661852,"subject_id":"90108","group":"Group2","full_date":"2025-12-06T21:41:25.757Z","date":"2025-12-06","time":"21:41:25"},{"task":"memory_phase","broad_category":"M","image_png":"M_Slate_10.png","image_id":314,"category_name":"Slate","category":20,"distinct_rating":1.94,"distinct_type":"Bottom","rt":null,"stimulus":"Stimuli_Rocks480/M_Slate_10.png","response":null,"trial_type":"image-keyboard-response","trial_index":85,"plugin_version":"2.1.0","time_elapsed":664356,"subject_id":"90108","group":"Group2","full_date":"2025-12-06T21:41:25.757Z","date":"2025-12-06","time":"21:41:25"},{"rt":null,"stimulus":"<p style=\"font-size: 50px; margin: 0; text-align: center;\">+</p>","response":null,"trial_type":"html-keyboard-response","trial_index":86,"plugin_version":"2.1.0","time_elapsed":665358,"subject_id":"90108","group":"Group2","full_date":"2025-12-06T21:41:25.757Z","date":"2025-12-06","time":"21:41:25"},{"task":"memory_phase","broad_category":"S","image_png":"S_Rock Salt_13.png","image_id":445,"category_name":"Rock Salt","category":28,"distinct_rating":7.58,"distinct_type":"Top","rt":null,"stimulus":"Stimuli_Rocks480/S_Rock Salt_13.png","response":null,"trial_type":"image-keyboard-response","trial_index":87,"plugin_version":"2.1.0","time_elapsed":667862,"subject_id":"90108","group":"Group2","full_date":"2025-12-06T21:41:25.757Z","date":"2025-12-06","time":"21:41:25"},{"rt":null,"stimulus":"<p style=\"font-size: 50px; margin: 0; text-align: center;\">+</p>","response":null,"trial_type":"html-keyboard-response","trial_index":88,"plugin_version":"2.1.0","time_elapsed":668865,"subject_id":"90108","group":"Group2","full_date":"2025-12-06T21:41:25.757Z","date":"2025-12-06","time":"21:41:25"},{"task":"memory_phase","broad_category":"I","image_png":"I_Rhyolite_08.png","image_id":152,"category_name":"Rhyolite","category":10,"distinct_rating":1.38,"distinct_type":"Bottom","rt":null,"stimulus":"Stimuli_Rocks480/I_Rhyolite_08.png","response":null,"trial_type":"image-keyboard-response","trial_index":89,"plugin_version":"2.1.0","time_elapsed":671368,"subject_id":"90108","group":"Group2","full_date":"2025-12-06T21:41:25.757Z","date":"2025-12-06","time":"21:41:25"},{"rt":null,"stimulus":"<p style=\"font-size: 50px; margin: 0; text-align: center;\">+</p>","response":null,"trial_type":"html-keyboard-response","trial_index":90,"plugin_version":"2.1.0","time_elapsed":672371,"subject_id":"90108","group":"Group2","full_date":"2025-12-06T21:41:25.757Z","date":"2025-12-06","time":"21:41:25"},{"task":"memory_phase","broad_category":"M","image_png":"M_Slate_14.png","image_id":318,"category_name":"Slate","category":20,"distinct_rating":2.58,"distinct_type":"Bottom","rt":null,"stimulus":"Stimuli_Rocks480/M_Slate_14.png","response":null,"trial_type":"image-keyboard-response","trial_index":91,"plugin_version":"2.1.0","time_elapsed":674874,"subject_id":"90108","group":"Group2","full_date":"2025-12-06T21:41:25.757Z","date":"2025-12-06","time":"21:41:25"},{"rt":null,"stimulus":"<p style=\"font-size: 50px; margin: 0; text-align: center;\">+</p>","response":null,"trial_type":"html-keyboard-response","trial_index":92,"plugin_version":"2.1.0","time_elapsed":675877,"subject_id":"90108","group":"Group2","full_date":"2025-12-06T21:41:25.757Z","date":"2025-12-06","time":"21:41:25"},{"task":"memory_phase","broad_category":"S","image_png":"S_Shale_03.png","image_id":467,"category_name":"Shale","category":30,"distinct_rating":1.95,"distinct_type":"Bottom","rt":null,"stimulus":"Stimuli_Rocks480/S_Shale_03.png","response":null,"trial_type":"image-keyboard-response","trial_index":93,"plugin_version":"2.1.0","time_elapsed":678380,"subject_id":"90108","group":"Group2","full_date":"2025-12-06T21:41:25.757Z","date":"2025-12-06","time":"21:41:25"},{"rt":null,"stimulus":"<p style=\"font-size: 50px; margin: 0; text-align: center;\">+</p>","response":null,"trial_type":"html-keyboard-response","trial_index":94,"plugin_version":"2.1.0","time_elapsed":679382,"subject_id":"90108","group":"Group2","full_date":"2025-12-06T21:41:25.757Z","date":"2025-12-06","time":"21:41:25"},{"task":"memory_phase","broad_category":"I","image_png":"I_Rhyolite_10.png","image_id":154,"category_name":"Rhyolite","category":10,"distinct_rating":2.88,"distinct_type":"Bottom","rt":null,"stimulus":"Stimuli_Rocks480/I_Rhyolite_10.png","response":null,"trial_type":"image-keyboard-response","trial_index":95,"plugin_version":"2.1.0","time_elapsed":681886,"subject_id":"90108","group":"Group2","full_date":"2025-12-06T21:41:25.757Z","date":"2025-12-06","time":"21:41:25"},{"rt":null,"stimulus":"<p style=\"font-size: 50px; margin: 0; text-align: center;\">+</p>","response":null,"trial_type":"html-keyboard-response","trial_index":96,"plugin_version":"2.1.0","time_elapsed":682888,"subject_id":"90108","group":"Group2","full_date":"2025-12-06T21:41:25.757Z","date":"2025-12-06","time":"21:41:25"},{"task":"memory_phase","broad_category":"S","image_png":"S_Chert_13.png","image_id":365,"category_name":"Chert","category":23,"distinct_rating":6.57,"distinct_type":"Top","rt":null,"stimulus":"Stimuli_Rocks480/S_Chert_13.png","response":null,"trial_type":"image-keyboard-response","trial_index":97,"plugin_version":"2.1.0","time_elapsed":685392,"subject_id":"90108","group":"Group2","full_date":"2025-12-06T21:41:25.757Z","date":"2025-12-06","time":"21:41:25"},{"rt":null,"stimulus":"<p style=\"font-size: 50px; margin: 0; text-align: center;\">+</p>","response":null,"trial_type":"html-keyboard-response","trial_index":98,"plugin_version":"2.1.0","time_elapsed":686394,"subject_id":"90108","group":"Group2","full_date":"2025-12-06T21:41:25.757Z","date":"2025-12-06","time":"21:41:25"},{"task":"memory_phase","broad_category":"M","image_png":"M_Gneiss_14.png","image_id":206,"category_name":"Gneiss","category":13,"distinct_rating":3.41,"distinct_type":"Bottom","rt":null,"stimulus":"Stimuli_Rocks480/M_Gneiss_14.png","response":null,"trial_type":"image-keyboard-response","trial_index":99,"plugin_version":"2.1.0","time_elapsed":688897,"subject_id":"90108","group":"Group2","full_date":"2025-12-06T21:41:25.757Z","date":"2025-12-06","time":"21:41:25"},{"rt":null,"stimulus":"<p style=\"font-size: 50px; margin: 0; text-align: center;\">+</p>","response":null,"trial_type":"html-keyboard-response","trial_index":100,"plugin_version":"2.1.0","time_elapsed":689900,"subject_id":"90108","group":"Group2","full_date":"2025-12-06T21:41:25.757Z","date":"2025-12-06","time":"21:41:25"},{"task":"memory_phase","broad_category":"S","image_png":"S_Sandstone_04.png","image_id":452,"category_name":"Sandstone","category":29,"distinct_rating":1.8,"distinct_type":"Bottom","rt":null,"stimulus":"Stimuli_Rocks480/S_Sandstone_04.png","response":null,"trial_type":"image-keyboard-response","trial_index":101,"plugin_version":"2.1.0","time_elapsed":692403,"subject_id":"90108","group":"Group2","full_date":"2025-12-06T21:41:25.757Z","date":"2025-12-06","time":"21:41:25"},{"rt":null,"stimulus":"<p style=\"font-size: 50px; margin: 0; text-align: center;\">+</p>","response":null,"trial_type":"html-keyboard-response","trial_index":102,"plugin_version":"2.1.0","time_elapsed":693405,"subject_id":"90108","group":"Group2","full_date":"2025-12-06T21:41:25.757Z","date":"2025-12-06","time":"21:41:25"},{"task":"memory_phase","broad_category":"S","image_png":"S_Sandstone_11.png","image_id":459,"category_name":"Sandstone","category":29,"distinct_rating":1.82,"distinct_type":"Bottom","rt":null,"stimulus":"Stimuli_Rocks480/S_Sandstone_11.png","response":null,"trial_type":"image-keyboard-response","trial_index":103,"plugin_version":"2.1.0","time_elapsed":695909,"subject_id":"90108","group":"Group2","full_date":"2025-12-06T21:41:25.757Z","date":"2025-12-06","time":"21:41:25"},{"rt":null,"stimulus":"<p style=\"font-size: 50px; margin: 0; text-align: center;\">+</p>","response":null,"trial_type":"html-keyboard-response","trial_index":104,"plugin_version":"2.1.0","time_elapsed":696911,"subject_id":"90108","group":"Group2","full_date":"2025-12-06T21:41:25.757Z","date":"2025-12-06","time":"21:41:25"},{"task":"memory_phase","broad_category":"I","image_png":"I_Gabbro_02.png","image_id":50,"category_name":"Gabbro","category":4,"distinct_rating":2.73,"distinct_type":"Bottom","rt":null,"stimulus":"Stimuli_Rocks480/I_Gabbro_02.png","response":null,"trial_type":"image-keyboard-response","trial_index":105,"plugin_version":"2.1.0","time_elapsed":699414,"subject_id":"90108","group":"Group2","full_date":"2025-12-06T21:41:25.757Z","date":"2025-12-06","time":"21:41:25"},{"rt":9763,"stimulus":"<p style=\"max-width: 760px; margin: auto; font-size: 35px; line-height: 1.5;\">You have completed 1 study phase. Now, we'll show you all the images again 2 more times.<br><br>Press SPACE to continue</p>","response":" ","trial_type":"html-keyboard-response","trial_index":106,"plugin_version":"2.1.0","time_elapsed":709179,"subject_id":"90108","group":"Group2","full_date":"2025-12-06T21:41:25.757Z","date":"2025-12-06","time":"21:41:25"},{"rt":null,"stimulus":"<p style=\"font-size: 50px; margin: 0; text-align: center;\">+</p>","response":null,"trial_type":"html-keyboard-response","trial_index":107,"plugin_version":"2.1.0","time_elapsed":710181,"subject_id":"90108","group":"Group2","full_date":"2025-12-06T21:41:25.757Z","date":"2025-12-06","time":"21:41:25"},{"task":"memory_phase","broad_category":"I","image_png":"I_Andesite_09.png","image_id":9,"category_name":"Andesite","category":1,"distinct_rating":2.49,"distinct_type":"Bottom","rt":null,"stimulus":"Stimuli_Rocks480/I_Andesite_09.png","response":null,"trial_type":"image-keyboard-response","trial_index":108,"plugin_version":"2.1.0","time_elapsed":712685,"subject_id":"90108","group":"Group2","full_date":"2025-12-06T21:41:25.757Z","date":"2025-12-06","time":"21:41:25"},{"rt":null,"stimulus":"<p style=\"font-size: 50px; margin: 0; text-align: center;\">+</p>","response":null,"trial_type":"html-keyboard-response","trial_index":109,"plugin_version":"2.1.0","time_elapsed":713687,"subject_id":"90108","group":"Group2","full_date":"2025-12-06T21:41:25.757Z","date":"2025-12-06","time":"21:41:25"},{"task":"memory_phase","broad_category":"I","image_png":"I_Obsidian_06.png","image_id":86,"category_name":"Obsidian","category":6,"distinct_rating":8.01,"distinct_type":"Top","rt":null,"stimulus":"Stimuli_Rocks480/I_Obsidian_06.png","response":null,"trial_type":"image-keyboard-response","trial_index":110,"plugin_version":"2.1.0","time_elapsed":716191,"subject_id":"90108","group":"Group2","full_date":"2025-12-06T21:41:25.757Z","date":"2025-12-06","time":"21:41:25"},{"rt":null,"stimulus":"<p style=\"font-size: 50px; margin: 0; text-align: center;\">+</p>","response":null,"trial_type":"html-keyboard-response","trial_index":111,"plugin_version":"2.1.0","time_elapsed":717194,"subject_id":"90108","group":"Group2","full_date":"2025-12-06T21:41:25.757Z","date":"2025-12-06","time":"21:41:25"},{"task":"memory_phase","broad_category":"M","image_png":"M_Quartzite_12.png","image_id":284,"category_name":"Quartzite","category":18,"distinct_rating":1.92,"distinct_type":"Bottom","rt":null,"stimulus":"Stimuli_Rocks480/M_Quartzite_12.png","response":null,"trial_type":"image-keyboard-response","trial_index":112,"plugin_version":"2.1.0","time_elapsed":719697,"subject_id":"90108","group":"Group2","full_date":"2025-12-06T21:41:25.757Z","date":"2025-12-06","time":"21:41:25"},{"rt":null,"stimulus":"<p style=\"font-size: 50px; margin: 0; text-align: center;\">+</p>","response":null,"trial_type":"html-keyboard-response","trial_index":113,"plugin_version":"2.1.0","time_elapsed":720699,"subject_id":"90108","group":"Group2","full_date":"2025-12-06T21:41:25.757Z","date":"2025-12-06","time":"21:41:25"},{"task":"memory_phase","broad_category":"M","image_png":"M_Gneiss_10.png","image_id":202,"category_name":"Gneiss","category":13,"distinct_rating":3.09,"distinct_type":"Bottom","rt":null,"stimulus":"Stimuli_Rocks480/M_Gneiss_10.png","response":null,"trial_type":"image-keyboard-response","trial_index":114,"plugin_version":"2.1.0","time_elapsed":723202,"subject_id":"90108","group":"Group2","full_date":"2025-12-06T21:41:25.757Z","date":"2025-12-06","time":"21:41:25"},{"rt":null,"stimulus":"<p style=\"font-size: 50px; margin: 0; text-align: center;\">+</p>","response":null,"trial_type":"html-keyboard-response","trial_index":115,"plugin_version":"2.1.0","time_elapsed":724205,"subject_id":"90108","group":"Group2","full_date":"2025-12-06T21:41:25.757Z","date":"2025-12-06","time":"21:41:25"},{"task":"memory_phase","broad_category":"S","image_png":"S_Rock Salt_13.png","image_id":445,"category_name":"Rock Salt","category":28,"distinct_rating":7.58,"distinct_type":"Top","rt":null,"stimulus":"Stimuli_Rocks480/S_Rock Salt_13.png","response":null,"trial_type":"image-keyboard-response","trial_index":116,"plugin_version":"2.1.0","time_elapsed":726708,"subject_id":"90108","group":"Group2","full_date":"2025-12-06T21:41:25.757Z","date":"2025-12-06","time":"21:41:25"},{"rt":null,"stimulus":"<p style=\"font-size: 50px; margin: 0; text-align: center;\">+</p>","response":null,"trial_type":"html-keyboard-response","trial_index":117,"plugin_version":"2.1.0","time_elapsed":727713,"subject_id":"90108","group":"Group2","full_date":"2025-12-06T21:41:25.757Z","date":"2025-12-06","time":"21:41:25"},{"task":"memory_phase","broad_category":"S","image_png":"S_Sandstone_11.png","image_id":459,"category_name":"Sandstone","category":29,"distinct_rating":1.82,"distinct_type":"Bottom","rt":null,"stimulus":"Stimuli_Rocks480/S_Sandstone_11.png","response":null,"trial_type":"image-keyboard-response","trial_index":118,"plugin_version":"2.1.0","time_elapsed":730216,"subject_id":"90108","group":"Group2","full_date":"2025-12-06T21:41:25.757Z","date":"2025-12-06","time":"21:41:25"},{"rt":null,"stimulus":"<p style=\"font-size: 50px; margin: 0; text-align: center;\">+</p>","response":null,"trial_type":"html-keyboard-response","trial_index":119,"plugin_version":"2.1.0","time_elapsed":731219,"subject_id":"90108","group":"Group2","full_date":"2025-12-06T21:41:25.757Z","date":"2025-12-06","time":"21:41:25"},{"task":"memory_phase","broad_category":"S","image_png":"S_Shale_07.png","image_id":471,"category_name":"Shale","category":30,"distinct_rating":2.73,"distinct_type":"Bottom","rt":null,"stimulus":"Stimuli_Rocks480/S_Shale_07.png","response":null,"trial_type":"image-keyboard-response","trial_index":120,"plugin_version":"2.1.0","time_elapsed":733722,"subject_id":"90108","group":"Group2","full_date":"2025-12-06T21:41:25.757Z","date":"2025-12-06","time":"21:41:25"},{"rt":null,"stimulus":"<p style=\"font-size: 50px; margin: 0; text-align: center;\">+</p>","response":null,"trial_type":"html-keyboard-response","trial_index":121,"plugin_version":"2.1.0","time_elapsed":734724,"subject_id":"90108","group":"Group2","full_date":"2025-12-06T21:41:25.757Z","date":"2025-12-06","time":"21:41:25"},{"task":"memory_phase","broad_category":"S","image_png":"S_Sandstone_04.png","image_id":452,"category_name":"Sandstone","category":29,"distinct_rating":1.8,"distinct_type":"Bottom","rt":null,"stimulus":"Stimuli_Rocks480/S_Sandstone_04.png","response":null,"trial_type":"image-keyboard-response","trial_index":122,"plugin_version":"2.1.0","time_elapsed":737228,"subject_id":"90108","group":"Group2","full_date":"2025-12-06T21:41:25.757Z","date":"2025-12-06","time":"21:41:25"},{"rt":null,"stimulus":"<p style=\"font-size: 50px; margin: 0; text-align: center;\">+</p>","response":null,"trial_type":"html-keyboard-response","trial_index":123,"plugin_version":"2.1.0","time_elapsed":738230,"subject_id":"90108","group":"Group2","full_date":"2025-12-06T21:41:25.757Z","date":"2025-12-06","time":"21:41:25"},{"task":"memory_phase","broad_category":"I","image_png":"I_Basalt_08.png","image_id":24,"category_name":"Basalt","category":2,"distinct_rating":2.31,"distinct_type":"Bottom","rt":null,"stimulus":"Stimuli_Rocks480/I_Basalt_08.png","response":null,"trial_type":"image-keyboard-response","trial_index":124,"plugin_version":"2.1.0","time_elapsed":740733,"subject_id":"90108","group":"Group2","full_date":"2025-12-06T21:41:25.757Z","date":"2025-12-06","time":"21:41:25"},{"rt":null,"stimulus":"<p style=\"font-size: 50px; margin: 0; text-align: center;\">+</p>","response":null,"trial_type":"html-keyboard-response","trial_index":125,"plugin_version":"2.1.0","time_elapsed":741735,"subject_id":"90108","group":"Group2","full_date":"2025-12-06T21:41:25.757Z","date":"2025-12-06","time":"21:41:25"},{"task":"memory_phase","broad_category":"M","image_png":"M_Phyllite_02.png","image_id":258,"category_name":"Phyllite","category":17,"distinct_rating":2.89,"distinct_type":"Bottom","rt":null,"stimulus":"Stimuli_Rocks480/M_Phyllite_02.png","response":null,"trial_type":"image-keyboard-response","trial_index":126,"plugin_version":"2.1.0","time_elapsed":744239,"subject_id":"90108","group":"Group2","full_date":"2025-12-06T21:41:25.757Z","date":"2025-12-06","time":"21:41:25"},{"rt":null,"stimulus":"<p style=\"font-size: 50px; margin: 0; text-align: center;\">+</p>","response":null,"trial_type":"html-keyboard-response","trial_index":127,"plugin_version":"2.1.0","time_elapsed":745241,"subject_id":"90108","group":"Group2","full_date":"2025-12-06T21:41:25.757Z","date":"2025-12-06","time":"21:41:25"},{"task":"memory_phase","broad_category":"I","image_png":"I_Basalt_13.png","image_id":29,"category_name":"Basalt","category":2,"distinct_rating":2.68,"distinct_type":"Bottom","rt":null,"stimulus":"Stimuli_Rocks480/I_Basalt_13.png","response":null,"trial_type":"image-keyboard-response","trial_index":128,"plugin_version":"2.1.0","time_elapsed":747744,"subject_id":"90108","group":"Group2","full_date":"2025-12-06T21:41:25.757Z","date":"2025-12-06","time":"21:41:25"},{"rt":null,"stimulus":"<p style=\"font-size: 50px; margin: 0; text-align: center;\">+</p>","response":null,"trial_type":"html-keyboard-response","trial_index":129,"plugin_version":"2.1.0","time_elapsed":748747,"subject_id":"90108","group":"Group2","full_date":"2025-12-06T21:41:25.757Z","date":"2025-12-06","time":"21:41:25"},{"task":"memory_phase","broad_category":"M","image_png":"M_Slate_14.png","image_id":318,"category_name":"Slate","category":20,"distinct_rating":2.58,"distinct_type":"Bottom","rt":null,"stimulus":"Stimuli_Rocks480/M_Slate_14.png","response":null,"trial_type":"image-keyboard-response","trial_index":130,"plugin_version":"2.1.0","time_elapsed":751250,"subject_id":"90108","group":"Group2","full_date":"2025-12-06T21:41:25.757Z","date":"2025-12-06","time":"21:41:25"},{"rt":null,"stimulus":"<p style=\"font-size: 50px; margin: 0; text-align: center;\">+</p>","response":null,"trial_type":"html-keyboard-response","trial_index":131,"plugin_version":"2.1.0","time_elapsed":752253,"subject_id":"90108","group":"Group2","full_date":"2025-12-06T21:41:25.757Z","date":"2025-12-06","time":"21:41:25"},{"task":"memory_phase","broad_category":"I","image_png":"I_Gabbro_02.png","image_id":50,"category_name":"Gabbro","category":4,"distinct_rating":2.73,"distinct_type":"Bottom","rt":null,"stimulus":"Stimuli_Rocks480/I_Gabbro_02.png","response":null,"trial_type":"image-keyboard-response","trial_index":132,"plugin_version":"2.1.0","time_elapsed":754757,"subject_id":"90108","group":"Group2","full_date":"2025-12-06T21:41:25.757Z","date":"2025-12-06","time":"21:41:25"},{"rt":null,"stimulus":"<p style=\"font-size: 50px; margin: 0; text-align: center;\">+</p>","response":null,"trial_type":"html-keyboard-response","trial_index":133,"plugin_version":"2.1.0","time_elapsed":755759,"subject_id":"90108","group":"Group2","full_date":"2025-12-06T21:41:25.757Z","date":"2025-12-06","time":"21:41:25"},{"task":"memory_phase","broad_category":"I","image_png":"I_Pegmatite_03.png","image_id":99,"category_name":"Pegmatite","category":7,"distinct_rating":7.24,"distinct_type":"Top","rt":null,"stimulus":"Stimuli_Rocks480/I_Pegmatite_03.png","response":null,"trial_type":"image-keyboard-response","trial_index":134,"plugin_version":"2.1.0","time_elapsed":758263,"subject_id":"90108","group":"Group2","full_date":"2025-12-06T21:41:25.757Z","date":"2025-12-06","time":"21:41:25"},{"rt":null,"stimulus":"<p style=\"font-size: 50px; margin: 0; text-align: center;\">+</p>","response":null,"trial_type":"html-keyboard-response","trial_index":135,"plugin_version":"2.1.0","time_elapsed":759265,"subject_id":"90108","group":"Group2","full_date":"2025-12-06T21:41:25.757Z","date":"2025-12-06","time":"21:41:25"},{"task":"memory_phase","broad_category":"M","image_png":"M_Quartzite_07.png","image_id":279,"category_name":"Quartzite","category":18,"distinct_rating":1.97,"distinct_type":"Bottom","rt":null,"stimulus":"Stimuli_Rocks480/M_Quartzite_07.png","response":null,"trial_type":"image-keyboard-response","trial_index":136,"plugin_version":"2.1.0","time_elapsed":761768,"subject_id":"90108","group":"Group2","full_date":"2025-12-06T21:41:25.757Z","date":"2025-12-06","time":"21:41:25"},{"rt":null,"stimulus":"<p style=\"font-size: 50px; margin: 0; text-align: center;\">+</p>","response":null,"trial_type":"html-keyboard-response","trial_index":137,"plugin_version":"2.1.0","time_elapsed":762770,"subject_id":"90108","group":"Group2","full_date":"2025-12-06T21:41:25.757Z","date":"2025-12-06","time":"21:41:25"},{"task":"memory_phase","broad_category":"I","image_png":"I_Basalt_10.png","image_id":26,"category_name":"Basalt","category":2,"distinct_rating":2.76,"distinct_type":"Bottom","rt":null,"stimulus":"Stimuli_Rocks480/I_Basalt_10.png","response":null,"trial_type":"image-keyboard-response","trial_index":138,"plugin_version":"2.1.0","time_elapsed":765274,"subject_id":"90108","group":"Group2","full_date":"2025-12-06T21:41:25.757Z","date":"2025-12-06","time":"21:41:25"},{"rt":null,"stimulus":"<p style=\"font-size: 50px; margin: 0; text-align: center;\">+</p>","response":null,"trial_type":"html-keyboard-response","trial_index":139,"plugin_version":"2.1.0","time_elapsed":766277,"subject_id":"90108","group":"Group2","full_date":"2025-12-06T21:41:25.757Z","date":"2025-12-06","time":"21:41:25"},{"task":"memory_phase","broad_category":"S","image_png":"S_Conglomerate_14.png","image_id":382,"category_name":"Conglomerate","category":24,"distinct_rating":6.86,"distinct_type":"Top","rt":null,"stimulus":"Stimuli_Rocks480/S_Conglomerate_14.png","response":null,"trial_type":"image-keyboard-response","trial_index":140,"plugin_version":"2.1.0","time_elapsed":768781,"subject_id":"90108","group":"Group2","full_date":"2025-12-06T21:41:25.757Z","date":"2025-12-06","time":"21:41:25"},{"rt":null,"stimulus":"<p style=\"font-size: 50px; margin: 0; text-align: center;\">+</p>","response":null,"trial_type":"html-keyboard-response","trial_index":141,"plugin_version":"2.1.0","time_elapsed":769782,"subject_id":"90108","group":"Group2","full_date":"2025-12-06T21:41:25.757Z","date":"2025-12-06","time":"21:41:25"},{"task":"memory_phase","broad_category":"S","image_png":"S_Sandstone_08.png","image_id":456,"category_name":"Sandstone","category":29,"distinct_rating":1.5,"distinct_type":"Bottom","rt":null,"stimulus":"Stimuli_Rocks480/S_Sandstone_08.png","response":null,"trial_type":"image-keyboard-response","trial_index":142,"plugin_version":"2.1.0","time_elapsed":772285,"subject_id":"90108","group":"Group2","full_date":"2025-12-06T21:41:25.757Z","date":"2025-12-06","time":"21:41:25"},{"rt":null,"stimulus":"<p style=\"font-size: 50px; margin: 0; text-align: center;\">+</p>","response":null,"trial_type":"html-keyboard-response","trial_index":143,"plugin_version":"2.1.0","time_elapsed":773288,"subject_id":"90108","group":"Group2","full_date":"2025-12-06T21:41:25.757Z","date":"2025-12-06","time":"21:41:25"},{"task":"memory_phase","broad_category":"I","image_png":"I_Diorite_15.png","image_id":47,"category_name":"Diorite","category":3,"distinct_rating":3.05,"distinct_type":"Bottom","rt":null,"stimulus":"Stimuli_Rocks480/I_Diorite_15.png","response":null,"trial_type":"image-keyboard-response","trial_index":144,"plugin_version":"2.1.0","time_elapsed":775791,"subject_id":"90108","group":"Group2","full_date":"2025-12-06T21:41:25.757Z","date":"2025-12-06","time":"21:41:25"},{"rt":null,"stimulus":"<p style=\"font-size: 50px; margin: 0; text-align: center;\">+</p>","response":null,"trial_type":"html-keyboard-response","trial_index":145,"plugin_version":"2.1.0","time_elapsed":776794,"subject_id":"90108","group":"Group2","full_date":"2025-12-06T21:41:25.757Z","date":"2025-12-06","time":"21:41:25"},{"task":"memory_phase","broad_category":"I","image_png":"I_Pumice_14.png","image_id":142,"category_name":"Pumice","category":9,"distinct_rating":3.22,"distinct_type":"Bottom","rt":null,"stimulus":"Stimuli_Rocks480/I_Pumice_14.png","response":null,"trial_type":"image-keyboard-response","trial_index":146,"plugin_version":"2.1.0","time_elapsed":779299,"subject_id":"90108","group":"Group2","full_date":"2025-12-06T21:41:25.757Z","date":"2025-12-06","time":"21:41:25"},{"rt":null,"stimulus":"<p style=\"font-size: 50px; margin: 0; text-align: center;\">+</p>","response":null,"trial_type":"html-keyboard-response","trial_index":147,"plugin_version":"2.1.0","time_elapsed":780302,"subject_id":"90108","group":"Group2","full_date":"2025-12-06T21:41:25.757Z","date":"2025-12-06","time":"21:41:25"},{"task":"memory_phase","broad_category":"M","image_png":"M_Marble_03.png","image_id":227,"category_name":"Marble","category":15,"distinct_rating":2.67,"distinct_type":"Bottom","rt":null,"stimulus":"Stimuli_Rocks480/M_Marble_03.png","response":null,"trial_type":"image-keyboard-response","trial_index":148,"plugin_version":"2.1.0","time_elapsed":782806,"subject_id":"90108","group":"Group2","full_date":"2025-12-06T21:41:25.757Z","date":"2025-12-06","time":"21:41:25"},{"rt":null,"stimulus":"<p style=\"font-size: 50px; margin: 0; text-align: center;\">+</p>","response":null,"trial_type":"html-keyboard-response","trial_index":149,"plugin_version":"2.1.0","time_elapsed":783808,"subject_id":"90108","group":"Group2","full_date":"2025-12-06T21:41:25.757Z","date":"2025-12-06","time":"21:41:25"},{"task":"memory_phase","broad_category":"S","image_png":"S_Dolomite_01.png","image_id":385,"category_name":"Dolomite","category":25,"distinct_rating":1.43,"distinct_type":"Bottom","rt":null,"stimulus":"Stimuli_Rocks480/S_Dolomite_01.png","response":null,"trial_type":"image-keyboard-response","trial_index":150,"plugin_version":"2.1.0","time_elapsed":786311,"subject_id":"90108","group":"Group2","full_date":"2025-12-06T21:41:25.757Z","date":"2025-12-06","time":"21:41:25"},{"rt":null,"stimulus":"<p style=\"font-size: 50px; margin: 0; text-align: center;\">+</p>","response":null,"trial_type":"html-keyboard-response","trial_index":151,"plugin_version":"2.1.0","time_elapsed":787314,"subject_id":"90108","group":"Group2","full_date":"2025-12-06T21:41:25.757Z","date":"2025-12-06","time":"21:41:25"},{"task":"memory_phase","broad_category":"I","image_png":"I_Pumice_13.png","image_id":141,"category_name":"Pumice","category":9,"distinct_rating":3.12,"distinct_type":"Bottom","rt":null,"stimulus":"Stimuli_Rocks480/I_Pumice_13.png","response":null,"trial_type":"image-keyboard-response","trial_index":152,"plugin_version":"2.1.0","time_elapsed":789817,"subject_id":"90108","group":"Group2","full_date":"2025-12-06T21:41:25.757Z","date":"2025-12-06","time":"21:41:25"},{"rt":null,"stimulus":"<p style=\"font-size: 50px; margin: 0; text-align: center;\">+</p>","response":null,"trial_type":"html-keyboard-response","trial_index":153,"plugin_version":"2.1.0","time_elapsed":790820,"subject_id":"90108","group":"Group2","full_date":"2025-12-06T21:41:25.757Z","date":"2025-12-06","time":"21:41:25"},{"task":"memory_phase","broad_category":"I","image_png":"I_Pumice_01.png","image_id":129,"category_name":"Pumice","category":9,"distinct_rating":3.25,"distinct_type":"Bottom","rt":null,"stimulus":"Stimuli_Rocks480/I_Pumice_01.png","response":null,"trial_type":"image-keyboard-response","trial_index":154,"plugin_version":"2.1.0","time_elapsed":793323,"subject_id":"90108","group":"Group2","full_date":"2025-12-06T21:41:25.757Z","date":"2025-12-06","time":"21:41:25"},{"rt":null,"stimulus":"<p style=\"font-size: 50px; margin: 0; text-align: center;\">+</p>","response":null,"trial_type":"html-keyboard-response","trial_index":155,"plugin_version":"2.1.0","time_elapsed":794324,"subject_id":"90108","group":"Group2","full_date":"2025-12-06T21:41:25.757Z","date":"2025-12-06","time":"21:41:25"},{"task":"memory_phase","broad_category":"S","image_png":"S_Dolomite_07.png","image_id":391,"category_name":"Dolomite","category":25,"distinct_rating":1.73,"distinct_type":"Bottom","rt":null,"stimulus":"Stimuli_Rocks480/S_Dolomite_07.png","response":null,"trial_type":"image-keyboard-response","trial_index":156,"plugin_version":"2.1.0","time_elapsed":796826,"subject_id":"90108","group":"Group2","full_date":"2025-12-06T21:41:25.757Z","date":"2025-12-06","time":"21:41:25"},{"rt":11500,"stimulus":"<p style=\"max-width: 760px; margin: auto; font-size: 35px; line-height: 1.5;\">Press SPACE to continue study phase</p>","response":" ","trial_type":"html-keyboard-response","trial_index":157,"plugin_version":"2.1.0","time_elapsed":808327,"subject_id":"90108","group":"Group2","full_date":"2025-12-06T21:41:25.757Z","date":"2025-12-06","time":"21:41:25"},{"rt":null,"stimulus":"<p style=\"font-size: 50px; margin: 0; text-align: center;\">+</p>","response":null,"trial_type":"html-keyboard-response","trial_index":158,"plugin_version":"2.1.0","time_elapsed":809330,"subject_id":"90108","group":"Group2","full_date":"2025-12-06T21:41:25.757Z","date":"2025-12-06","time":"21:41:25"},{"task":"memory_phase","broad_category":"I","image_png":"I_Rhyolite_08.png","image_id":152,"category_name":"Rhyolite","category":10,"distinct_rating":1.38,"distinct_type":"Bottom","rt":null,"stimulus":"Stimuli_Rocks480/I_Rhyolite_08.png","response":null,"trial_type":"image-keyboard-response","trial_index":159,"plugin_version":"2.1.0","time_elapsed":811833,"subject_id":"90108","group":"Group2","full_date":"2025-12-06T21:41:25.757Z","date":"2025-12-06","time":"21:41:25"},{"rt":null,"stimulus":"<p style=\"font-size: 50px; margin: 0; text-align: center;\">+</p>","response":null,"trial_type":"html-keyboard-response","trial_index":160,"plugin_version":"2.1.0","time_elapsed":812836,"subject_id":"90108","group":"Group2","full_date":"2025-12-06T21:41:25.757Z","date":"2025-12-06","time":"21:41:25"},{"task":"memory_phase","broad_category":"M","image_png":"M_Quartzite_15.png","image_id":287,"category_name":"Quartzite","category":18,"distinct_rating":2.19,"distinct_type":"Bottom","rt":null,"stimulus":"Stimuli_Rocks480/M_Quartzite_15.png","response":null,"trial_type":"image-keyboard-response","trial_index":161,"plugin_version":"2.1.0","time_elapsed":815339,"subject_id":"90108","group":"Group2","full_date":"2025-12-06T21:41:25.757Z","date":"2025-12-06","time":"21:41:25"},{"rt":null,"stimulus":"<p style=\"font-size: 50px; margin: 0; text-align: center;\">+</p>","response":null,"trial_type":"html-keyboard-response","trial_index":162,"plugin_version":"2.1.0","time_elapsed":816341,"subject_id":"90108","group":"Group2","full_date":"2025-12-06T21:41:25.757Z","date":"2025-12-06","time":"21:41:25"},{"task":"memory_phase","broad_category":"M","image_png":"M_Gneiss_14.png","image_id":206,"category_name":"Gneiss","category":13,"distinct_rating":3.41,"distinct_type":"Bottom","rt":null,"stimulus":"Stimuli_Rocks480/M_Gneiss_14.png","response":null,"trial_type":"image-keyboard-response","trial_index":163,"plugin_version":"2.1.0","time_elapsed":818844,"subject_id":"90108","group":"Group2","full_date":"2025-12-06T21:41:25.757Z","date":"2025-12-06","time":"21:41:25"},{"rt":null,"stimulus":"<p style=\"font-size: 50px; margin: 0; text-align: center;\">+</p>","response":null,"trial_type":"html-keyboard-response","trial_index":164,"plugin_version":"2.1.0","time_elapsed":819847,"subject_id":"90108","group":"Group2","full_date":"2025-12-06T21:41:25.757Z","date":"2025-12-06","time":"21:41:25"},{"task":"memory_phase","broad_category":"I","image_png":"I_Pegmatite_11.png","image_id":107,"category_name":"Pegmatite","category":7,"distinct_rating":7.11,"distinct_type":"Top","rt":null,"stimulus":"Stimuli_Rocks480/I_Pegmatite_11.png","response":null,"trial_type":"image-keyboard-response","trial_index":165,"plugin_version":"2.1.0","time_elapsed":822353,"subject_id":"90108","group":"Group2","full_date":"2025-12-06T21:41:25.757Z","date":"2025-12-06","time":"21:41:25"},{"rt":null,"stimulus":"<p style=\"font-size: 50px; margin: 0; text-align: center;\">+</p>","response":null,"trial_type":"html-keyboard-response","trial_index":166,"plugin_version":"2.1.0","time_elapsed":823355,"subject_id":"90108","group":"Group2","full_date":"2025-12-06T21:41:25.757Z","date":"2025-12-06","time":"21:41:25"},{"task":"memory_phase","broad_category":"I","image_png":"I_Gabbro_12.png","image_id":60,"category_name":"Gabbro","category":4,"distinct_rating":2.6,"distinct_type":"Bottom","rt":null,"stimulus":"Stimuli_Rocks480/I_Gabbro_12.png","response":null,"trial_type":"image-keyboard-response","trial_index":167,"plugin_version":"2.1.0","time_elapsed":825858,"subject_id":"90108","group":"Group2","full_date":"2025-12-06T21:41:25.757Z","date":"2025-12-06","time":"21:41:25"},{"rt":null,"stimulus":"<p style=\"font-size: 50px; margin: 0; text-align: center;\">+</p>","response":null,"trial_type":"html-keyboard-response","trial_index":168,"plugin_version":"2.1.0","time_elapsed":826860,"subject_id":"90108","group":"Group2","full_date":"2025-12-06T21:41:25.757Z","date":"2025-12-06","time":"21:41:25"},{"task":"memory_phase","broad_category":"I","image_png":"I_Diorite_10.png","image_id":42,"category_name":"Diorite","category":3,"distinct_rating":2.84,"distinct_type":"Bottom","rt":null,"stimulus":"Stimuli_Rocks480/I_Diorite_10.png","response":null,"trial_type":"image-keyboard-response","trial_index":169,"plugin_version":"2.1.0","time_elapsed":829363,"subject_id":"90108","group":"Group2","full_date":"2025-12-06T21:41:25.757Z","date":"2025-12-06","time":"21:41:25"},{"rt":null,"stimulus":"<p style=\"font-size: 50px; margin: 0; text-align: center;\">+</p>","response":null,"trial_type":"html-keyboard-response","trial_index":170,"plugin_version":"2.1.0","time_elapsed":830365,"subject_id":"90108","group":"Group2","full_date":"2025-12-06T21:41:25.757Z","date":"2025-12-06","time":"21:41:25"},{"task":"memory_phase","broad_category":"S","image_png":"S_Dolomite_16.png","image_id":400,"category_name":"Dolomite","category":25,"distinct_rating":1.71,"distinct_type":"Bottom","rt":null,"stimulus":"Stimuli_Rocks480/S_Dolomite_16.png","response":null,"trial_type":"image-keyboard-response","trial_index":171,"plugin_version":"2.1.0","time_elapsed":832869,"subject_id":"90108","group":"Group2","full_date":"2025-12-06T21:41:25.757Z","date":"2025-12-06","time":"21:41:25"},{"rt":null,"stimulus":"<p style=\"font-size: 50px; margin: 0; text-align: center;\">+</p>","response":null,"trial_type":"html-keyboard-response","trial_index":172,"plugin_version":"2.1.0","time_elapsed":833871,"subject_id":"90108","group":"Group2","full_date":"2025-12-06T21:41:25.757Z","date":"2025-12-06","time":"21:41:25"},{"task":"memory_phase","broad_category":"I","image_png":"I_Peridotite_13.png","image_id":125,"category_name":"Peridotite","category":8,"distinct_rating":7.28,"distinct_type":"Top","rt":null,"stimulus":"Stimuli_Rocks480/I_Peridotite_13.png","response":null,"trial_type":"image-keyboard-response","trial_index":173,"plugin_version":"2.1.0","time_elapsed":836374,"subject_id":"90108","group":"Group2","full_date":"2025-12-06T21:41:25.757Z","date":"2025-12-06","time":"21:41:25"},{"rt":null,"stimulus":"<p style=\"font-size: 50px; margin: 0; text-align: center;\">+</p>","response":null,"trial_type":"html-keyboard-response","trial_index":174,"plugin_version":"2.1.0","time_elapsed":837376,"subject_id":"90108","group":"Group2","full_date":"2025-12-06T21:41:25.757Z","date":"2025-12-06","time":"21:41:25"},{"task":"memory_phase","broad_category":"S","image_png":"S_Rock Salt_15.png","image_id":447,"category_name":"Rock Salt","category":28,"distinct_rating":7.79,"distinct_type":"Top","rt":null,"stimulus":"Stimuli_Rocks480/S_Rock Salt_15.png","response":null,"trial_type":"image-keyboard-response","trial_index":175,"plugin_version":"2.1.0","time_elapsed":839879,"subject_id":"90108","group":"Group2","full_date":"2025-12-06T21:41:25.757Z","date":"2025-12-06","time":"21:41:25"},{"rt":null,"stimulus":"<p style=\"font-size: 50px; margin: 0; text-align: center;\">+</p>","response":null,"trial_type":"html-keyboard-response","trial_index":176,"plugin_version":"2.1.0","time_elapsed":840882,"subject_id":"90108","group":"Group2","full_date":"2025-12-06T21:41:25.757Z","date":"2025-12-06","time":"21:41:25"},{"task":"memory_phase","broad_category":"M","image_png":"M_Marble_14.png","image_id":238,"category_name":"Marble","category":15,"distinct_rating":3.31,"distinct_type":"Bottom","rt":null,"stimulus":"Stimuli_Rocks480/M_Marble_14.png","response":null,"trial_type":"image-keyboard-response","trial_index":177,"plugin_version":"2.1.0","time_elapsed":843385,"subject_id":"90108","group":"Group2","full_date":"2025-12-06T21:41:25.757Z","date":"2025-12-06","time":"21:41:25"},{"rt":null,"stimulus":"<p style=\"font-size: 50px; margin: 0; text-align: center;\">+</p>","response":null,"trial_type":"html-keyboard-response","trial_index":178,"plugin_version":"2.1.0","time_elapsed":844388,"subject_id":"90108","group":"Group2","full_date":"2025-12-06T21:41:25.757Z","date":"2025-12-06","time":"21:41:25"},{"task":"memory_phase","broad_category":"S","image_png":"S_Shale_02.png","image_id":466,"category_name":"Shale","category":30,"distinct_rating":2.9,"distinct_type":"Bottom","rt":null,"stimulus":"Stimuli_Rocks480/S_Shale_02.png","response":null,"trial_type":"image-keyboard-response","trial_index":179,"plugin_version":"2.1.0","time_elapsed":846892,"subject_id":"90108","group":"Group2","full_date":"2025-12-06T21:41:25.757Z","date":"2025-12-06","time":"21:41:25"},{"rt":null,"stimulus":"<p style=\"font-size: 50px; margin: 0; text-align: center;\">+</p>","response":null,"trial_type":"html-keyboard-response","trial_index":180,"plugin_version":"2.1.0","time_elapsed":847894,"subject_id":"90108","group":"Group2","full_date":"2025-12-06T21:41:25.757Z","date":"2025-12-06","time":"21:41:25"},{"task":"memory_phase","broad_category":"M","image_png":"M_Phyllite_13.png","image_id":269,"category_name":"Phyllite","category":17,"distinct_rating":2.8,"distinct_type":"Bottom","rt":null,"stimulus":"Stimuli_Rocks480/M_Phyllite_13.png","response":null,"trial_type":"image-keyboard-response","trial_index":181,"plugin_version":"2.1.0","time_elapsed":850398,"subject_id":"90108","group":"Group2","full_date":"2025-12-06T21:41:25.757Z","date":"2025-12-06","time":"21:41:25"},{"rt":null,"stimulus":"<p style=\"font-size: 50px; margin: 0; text-align: center;\">+</p>","response":null,"trial_type":"html-keyboard-response","trial_index":182,"plugin_version":"2.1.0","time_elapsed":851401,"subject_id":"90108","group":"Group2","full_date":"2025-12-06T21:41:25.757Z","date":"2025-12-06","time":"21:41:25"},{"task":"memory_phase","broad_category":"I","image_png":"I_Rhyolite_10.png","image_id":154,"category_name":"Rhyolite","category":10,"distinct_rating":2.88,"distinct_type":"Bottom","rt":null,"stimulus":"Stimuli_Rocks480/I_Rhyolite_10.png","response":null,"trial_type":"image-keyboard-response","trial_index":183,"plugin_version":"2.1.0","time_elapsed":853904,"subject_id":"90108","group":"Group2","full_date":"2025-12-06T21:41:25.757Z","date":"2025-12-06","time":"21:41:25"},{"rt":null,"stimulus":"<p style=\"font-size: 50px; margin: 0; text-align: center;\">+</p>","response":null,"trial_type":"html-keyboard-response","trial_index":184,"plugin_version":"2.1.0","time_elapsed":854906,"subject_id":"90108","group":"Group2","full_date":"2025-12-06T21:41:25.757Z","date":"2025-12-06","time":"21:41:25"},{"task":"memory_phase","broad_category":"I","image_png":"I_Gabbro_14.png","image_id":62,"category_name":"Gabbro","category":4,"distinct_rating":2.95,"distinct_type":"Bottom","rt":null,"stimulus":"Stimuli_Rocks480/I_Gabbro_14.png","response":null,"trial_type":"image-keyboard-response","trial_index":185,"plugin_version":"2.1.0","time_elapsed":857409,"subject_id":"90108","group":"Group2","full_date":"2025-12-06T21:41:25.757Z","date":"2025-12-06","time":"21:41:25"},{"rt":null,"stimulus":"<p style=\"font-size: 50px; margin: 0; text-align: center;\">+</p>","response":null,"trial_type":"html-keyboard-response","trial_index":186,"plugin_version":"2.1.0","time_elapsed":858412,"subject_id":"90108","group":"Group2","full_date":"2025-12-06T21:41:25.757Z","date":"2025-12-06","time":"21:41:25"},{"task":"memory_phase","broad_category":"M","image_png":"M_Slate_10.png","image_id":314,"category_name":"Slate","category":20,"distinct_rating":1.94,"distinct_type":"Bottom","rt":null,"stimulus":"Stimuli_Rocks480/M_Slate_10.png","response":null,"trial_type":"image-keyboard-response","trial_index":187,"plugin_version":"2.1.0","time_elapsed":860914,"subject_id":"90108","group":"Group2","full_date":"2025-12-06T21:41:25.757Z","date":"2025-12-06","time":"21:41:25"},{"rt":null,"stimulus":"<p style=\"font-size: 50px; margin: 0; text-align: center;\">+</p>","response":null,"trial_type":"html-keyboard-response","trial_index":188,"plugin_version":"2.1.0","time_elapsed":861917,"subject_id":"90108","group":"Group2","full_date":"2025-12-06T21:41:25.757Z","date":"2025-12-06","time":"21:41:25"},{"task":"memory_phase","broad_category":"I","image_png":"I_Andesite_03.png","image_id":3,"category_name":"Andesite","category":1,"distinct_rating":3.17,"distinct_type":"Bottom","rt":null,"stimulus":"Stimuli_Rocks480/I_Andesite_03.png","response":null,"trial_type":"image-keyboard-response","trial_index":189,"plugin_version":"2.1.0","time_elapsed":864421,"subject_id":"90108","group":"Group2","full_date":"2025-12-06T21:41:25.757Z","date":"2025-12-06","time":"21:41:25"},{"rt":null,"stimulus":"<p style=\"font-size: 50px; margin: 0; text-align: center;\">+</p>","response":null,"trial_type":"html-keyboard-response","trial_index":190,"plugin_version":"2.1.0","time_elapsed":865423,"subject_id":"90108","group":"Group2","full_date":"2025-12-06T21:41:25.757Z","date":"2025-12-06","time":"21:41:25"},{"task":"memory_phase","broad_category":"M","image_png":"M_Phyllite_05.png","image_id":261,"category_name":"Phyllite","category":17,"distinct_rating":2.14,"distinct_type":"Bottom","rt":null,"stimulus":"Stimuli_Rocks480/M_Phyllite_05.png","response":null,"trial_type":"image-keyboard-response","trial_index":191,"plugin_version":"2.1.0","time_elapsed":867927,"subject_id":"90108","group":"Group2","full_date":"2025-12-06T21:41:25.757Z","date":"2025-12-06","time":"21:41:25"},{"rt":null,"stimulus":"<p style=\"font-size: 50px; margin: 0; text-align: center;\">+</p>","response":null,"trial_type":"html-keyboard-response","trial_index":192,"plugin_version":"2.1.0","time_elapsed":868929,"subject_id":"90108","group":"Group2","full_date":"2025-12-06T21:41:25.757Z","date":"2025-12-06","time":"21:41:25"},{"task":"memory_phase","broad_category":"S","image_png":"S_Shale_03.png","image_id":467,"category_name":"Shale","category":30,"distinct_rating":1.95,"distinct_type":"Bottom","rt":null,"stimulus":"Stimuli_Rocks480/S_Shale_03.png","response":null,"trial_type":"image-keyboard-response","trial_index":193,"plugin_version":"2.1.0","time_elapsed":871432,"subject_id":"90108","group":"Group2","full_date":"2025-12-06T21:41:25.757Z","date":"2025-12-06","time":"21:41:25"},{"rt":null,"stimulus":"<p style=\"font-size: 50px; margin: 0; text-align: center;\">+</p>","response":null,"trial_type":"html-keyboard-response","trial_index":194,"plugin_version":"2.1.0","time_elapsed":872435,"subject_id":"90108","group":"Group2","full_date":"2025-12-06T21:41:25.757Z","date":"2025-12-06","time":"21:41:25"},{"task":"memory_phase","broad_category":"M","image_png":"M_Marble_02.png","image_id":226,"category_name":"Marble","category":15,"distinct_rating":3.2,"distinct_type":"Bottom","rt":null,"stimulus":"Stimuli_Rocks480/M_Marble_02.png","response":null,"trial_type":"image-keyboard-response","trial_index":195,"plugin_version":"2.1.0","time_elapsed":874938,"subject_id":"90108","group":"Group2","full_date":"2025-12-06T21:41:25.757Z","date":"2025-12-06","time":"21:41:25"},{"rt":null,"stimulus":"<p style=\"font-size: 50px; margin: 0; text-align: center;\">+</p>","response":null,"trial_type":"html-keyboard-response","trial_index":196,"plugin_version":"2.1.0","time_elapsed":875941,"subject_id":"90108","group":"Group2","full_date":"2025-12-06T21:41:25.757Z","date":"2025-12-06","time":"21:41:25"},{"task":"memory_phase","broad_category":"I","image_png":"I_Diorite_01.png","image_id":33,"category_name":"Diorite","category":3,"distinct_rating":2.97,"distinct_type":"Bottom","rt":null,"stimulus":"Stimuli_Rocks480/I_Diorite_01.png","response":null,"trial_type":"image-keyboard-response","trial_index":197,"plugin_version":"2.1.0","time_elapsed":878445,"subject_id":"90108","group":"Group2","full_date":"2025-12-06T21:41:25.757Z","date":"2025-12-06","time":"21:41:25"},{"rt":null,"stimulus":"<p style=\"font-size: 50px; margin: 0; text-align: center;\">+</p>","response":null,"trial_type":"html-keyboard-response","trial_index":198,"plugin_version":"2.1.0","time_elapsed":879447,"subject_id":"90108","group":"Group2","full_date":"2025-12-06T21:41:25.757Z","date":"2025-12-06","time":"21:41:25"},{"task":"memory_phase","broad_category":"M","image_png":"M_Gneiss_15.png","image_id":207,"category_name":"Gneiss","category":13,"distinct_rating":3.11,"distinct_type":"Bottom","rt":null,"stimulus":"Stimuli_Rocks480/M_Gneiss_15.png","response":null,"trial_type":"image-keyboard-response","trial_index":199,"plugin_version":"2.1.0","time_elapsed":881951,"subject_id":"90108","group":"Group2","full_date":"2025-12-06T21:41:25.757Z","date":"2025-12-06","time":"21:41:25"},{"rt":null,"stimulus":"<p style=\"font-size: 50px; margin: 0; text-align: center;\">+</p>","response":null,"trial_type":"html-keyboard-response","trial_index":200,"plugin_version":"2.1.0","time_elapsed":882954,"subject_id":"90108","group":"Group2","full_date":"2025-12-06T21:41:25.757Z","date":"2025-12-06","time":"21:41:25"},{"task":"memory_phase","broad_category":"M","image_png":"M_Slate_04.png","image_id":308,"category_name":"Slate","category":20,"distinct_rating":2.2,"distinct_type":"Bottom","rt":null,"stimulus":"Stimuli_Rocks480/M_Slate_04.png","response":null,"trial_type":"image-keyboard-response","trial_index":201,"plugin_version":"2.1.0","time_elapsed":885457,"subject_id":"90108","group":"Group2","full_date":"2025-12-06T21:41:25.757Z","date":"2025-12-06","time":"21:41:25"},{"rt":null,"stimulus":"<p style=\"font-size: 50px; margin: 0; text-align: center;\">+</p>","response":null,"trial_type":"html-keyboard-response","trial_index":202,"plugin_version":"2.1.0","time_elapsed":886460,"subject_id":"90108","group":"Group2","full_date":"2025-12-06T21:41:25.757Z","date":"2025-12-06","time":"21:41:25"},{"task":"memory_phase","broad_category":"I","image_png":"I_Andesite_04.png","image_id":4,"category_name":"Andesite","category":1,"distinct_rating":3.18,"distinct_type":"Bottom","rt":null,"stimulus":"Stimuli_Rocks480/I_Andesite_04.png","response":null,"trial_type":"image-keyboard-response","trial_index":203,"plugin_version":"2.1.0","time_elapsed":888963,"subject_id":"90108","group":"Group2","full_date":"2025-12-06T21:41:25.757Z","date":"2025-12-06","time":"21:41:25"},{"rt":null,"stimulus":"<p style=\"font-size: 50px; margin: 0; text-align: center;\">+</p>","response":null,"trial_type":"html-keyboard-response","trial_index":204,"plugin_version":"2.1.0","time_elapsed":889965,"subject_id":"90108","group":"Group2","full_date":"2025-12-06T21:41:25.757Z","date":"2025-12-06","time":"21:41:25"},{"task":"memory_phase","broad_category":"S","image_png":"S_Chert_13.png","image_id":365,"category_name":"Chert","category":23,"distinct_rating":6.57,"distinct_type":"Top","rt":null,"stimulus":"Stimuli_Rocks480/S_Chert_13.png","response":null,"trial_type":"image-keyboard-response","trial_index":205,"plugin_version":"2.1.0","time_elapsed":892468,"subject_id":"90108","group":"Group2","full_date":"2025-12-06T21:41:25.757Z","date":"2025-12-06","time":"21:41:25"},{"rt":null,"stimulus":"<p style=\"font-size: 50px; margin: 0; text-align: center;\">+</p>","response":null,"trial_type":"html-keyboard-response","trial_index":206,"plugin_version":"2.1.0","time_elapsed":893471,"subject_id":"90108","group":"Group2","full_date":"2025-12-06T21:41:25.757Z","date":"2025-12-06","time":"21:41:25"},{"task":"memory_phase","broad_category":"I","image_png":"I_Rhyolite_05.png","image_id":149,"category_name":"Rhyolite","category":10,"distinct_rating":3.02,"distinct_type":"Bottom","rt":null,"stimulus":"Stimuli_Rocks480/I_Rhyolite_05.png","response":null,"trial_type":"image-keyboard-response","trial_index":207,"plugin_version":"2.1.0","time_elapsed":895974,"subject_id":"90108","group":"Group2","full_date":"2025-12-06T21:41:25.757Z","date":"2025-12-06","time":"21:41:25"},{"rt":3155,"stimulus":"<p style=\"max-width: 760px; margin: auto; font-size: 35px; line-height: 1.5;\">You have completed 2 study phases. Now, we'll show you all the images again 1 more time.<br><br>Press SPACE to continue</p>","response":" ","trial_type":"html-keyboard-response","trial_index":208,"plugin_version":"2.1.0","time_elapsed":899130,"subject_id":"90108","group":"Group2","full_date":"2025-12-06T21:41:25.757Z","date":"2025-12-06","time":"21:41:25"},{"rt":null,"stimulus":"<p style=\"font-size: 50px; margin: 0; text-align: center;\">+</p>","response":null,"trial_type":"html-keyboard-response","trial_index":209,"plugin_version":"2.1.0","time_elapsed":900133,"subject_id":"90108","group":"Group2","full_date":"2025-12-06T21:41:25.757Z","date":"2025-12-06","time":"21:41:25"},{"task":"memory_phase","broad_category":"I","image_png":"I_Diorite_10.png","image_id":42,"category_name":"Diorite","category":3,"distinct_rating":2.84,"distinct_type":"Bottom","rt":null,"stimulus":"Stimuli_Rocks480/I_Diorite_10.png","response":null,"trial_type":"image-keyboard-response","trial_index":210,"plugin_version":"2.1.0","time_elapsed":902636,"subject_id":"90108","group":"Group2","full_date":"2025-12-06T21:41:25.757Z","date":"2025-12-06","time":"21:41:25"},{"rt":null,"stimulus":"<p style=\"font-size: 50px; margin: 0; text-align: center;\">+</p>","response":null,"trial_type":"html-keyboard-response","trial_index":211,"plugin_version":"2.1.0","time_elapsed":903638,"subject_id":"90108","group":"Group2","full_date":"2025-12-06T21:41:25.757Z","date":"2025-12-06","time":"21:41:25"},{"task":"memory_phase","broad_category":"S","image_png":"S_Shale_02.png","image_id":466,"category_name":"Shale","category":30,"distinct_rating":2.9,"distinct_type":"Bottom","rt":null,"stimulus":"Stimuli_Rocks480/S_Shale_02.png","response":null,"trial_type":"image-keyboard-response","trial_index":212,"plugin_version":"2.1.0","time_elapsed":906141,"subject_id":"90108","group":"Group2","full_date":"2025-12-06T21:41:25.757Z","date":"2025-12-06","time":"21:41:25"},{"rt":null,"stimulus":"<p style=\"font-size: 50px; margin: 0; text-align: center;\">+</p>","response":null,"trial_type":"html-keyboard-response","trial_index":213,"plugin_version":"2.1.0","time_elapsed":907143,"subject_id":"90108","group":"Group2","full_date":"2025-12-06T21:41:25.757Z","date":"2025-12-06","time":"21:41:25"},{"task":"memory_phase","broad_category":"M","image_png":"M_Phyllite_05.png","image_id":261,"category_name":"Phyllite","category":17,"distinct_rating":2.14,"distinct_type":"Bottom","rt":null,"stimulus":"Stimuli_Rocks480/M_Phyllite_05.png","response":null,"trial_type":"image-keyboard-response","trial_index":214,"plugin_version":"2.1.0","time_elapsed":909647,"subject_id":"90108","group":"Group2","full_date":"2025-12-06T21:41:25.757Z","date":"2025-12-06","time":"21:41:25"},{"rt":null,"stimulus":"<p style=\"font-size: 50px; margin: 0; text-align: center;\">+</p>","response":null,"trial_type":"html-keyboard-response","trial_index":215,"plugin_version":"2.1.0","time_elapsed":910649,"subject_id":"90108","group":"Group2","full_date":"2025-12-06T21:41:25.757Z","date":"2025-12-06","time":"21:41:25"},{"task":"memory_phase","broad_category":"S","image_png":"S_Dolomite_16.png","image_id":400,"category_name":"Dolomite","category":25,"distinct_rating":1.71,"distinct_type":"Bottom","rt":null,"stimulus":"Stimuli_Rocks480/S_Dolomite_16.png","response":null,"trial_type":"image-keyboard-response","trial_index":216,"plugin_version":"2.1.0","time_elapsed":913152,"subject_id":"90108","group":"Group2","full_date":"2025-12-06T21:41:25.757Z","date":"2025-12-06","time":"21:41:25"},{"rt":null,"stimulus":"<p style=\"font-size: 50px; margin: 0; text-align: center;\">+</p>","response":null,"trial_type":"html-keyboard-response","trial_index":217,"plugin_version":"2.1.0","time_elapsed":914154,"subject_id":"90108","group":"Group2","full_date":"2025-12-06T21:41:25.757Z","date":"2025-12-06","time":"21:41:25"},{"task":"memory_phase","broad_category":"S","image_png":"S_Sandstone_04.png","image_id":452,"category_name":"Sandstone","category":29,"distinct_rating":1.8,"distinct_type":"Bottom","rt":null,"stimulus":"Stimuli_Rocks480/S_Sandstone_04.png","response":null,"trial_type":"image-keyboard-response","trial_index":218,"plugin_version":"2.1.0","time_elapsed":916658,"subject_id":"90108","group":"Group2","full_date":"2025-12-06T21:41:25.757Z","date":"2025-12-06","time":"21:41:25"},{"rt":null,"stimulus":"<p style=\"font-size: 50px; margin: 0; text-align: center;\">+</p>","response":null,"trial_type":"html-keyboard-response","trial_index":219,"plugin_version":"2.1.0","time_elapsed":917660,"subject_id":"90108","group":"Group2","full_date":"2025-12-06T21:41:25.757Z","date":"2025-12-06","time":"21:41:25"},{"task":"memory_phase","broad_category":"M","image_png":"M_Marble_14.png","image_id":238,"category_name":"Marble","category":15,"distinct_rating":3.31,"distinct_type":"Bottom","rt":null,"stimulus":"Stimuli_Rocks480/M_Marble_14.png","response":null,"trial_type":"image-keyboard-response","trial_index":220,"plugin_version":"2.1.0","time_elapsed":920164,"subject_id":"90108","group":"Group2","full_date":"2025-12-06T21:41:25.757Z","date":"2025-12-06","time":"21:41:25"},{"rt":null,"stimulus":"<p style=\"font-size: 50px; margin: 0; text-align: center;\">+</p>","response":null,"trial_type":"html-keyboard-response","trial_index":221,"plugin_version":"2.1.0","time_elapsed":921166,"subject_id":"90108","group":"Group2","full_date":"2025-12-06T21:41:25.757Z","date":"2025-12-06","time":"21:41:25"},{"task":"memory_phase","broad_category":"I","image_png":"I_Peridotite_13.png","image_id":125,"category_name":"Peridotite","category":8,"distinct_rating":7.28,"distinct_type":"Top","rt":null,"stimulus":"Stimuli_Rocks480/I_Peridotite_13.png","response":null,"trial_type":"image-keyboard-response","trial_index":222,"plugin_version":"2.1.0","time_elapsed":923669,"subject_id":"90108","group":"Group2","full_date":"2025-12-06T21:41:25.757Z","date":"2025-12-06","time":"21:41:25"},{"rt":null,"stimulus":"<p style=\"font-size: 50px; margin: 0; text-align: center;\">+</p>","response":null,"trial_type":"html-keyboard-response","trial_index":223,"plugin_version":"2.1.0","time_elapsed":924672,"subject_id":"90108","group":"Group2","full_date":"2025-12-06T21:41:25.757Z","date":"2025-12-06","time":"21:41:25"},{"task":"memory_phase","broad_category":"I","image_png":"I_Andesite_03.png","image_id":3,"category_name":"Andesite","category":1,"distinct_rating":3.17,"distinct_type":"Bottom","rt":null,"stimulus":"Stimuli_Rocks480/I_Andesite_03.png","response":null,"trial_type":"image-keyboard-response","trial_index":224,"plugin_version":"2.1.0","time_elapsed":927175,"subject_id":"90108","group":"Group2","full_date":"2025-12-06T21:41:25.757Z","date":"2025-12-06","time":"21:41:25"},{"rt":null,"stimulus":"<p style=\"font-size: 50px; margin: 0; text-align: center;\">+</p>","response":null,"trial_type":"html-keyboard-response","trial_index":225,"plugin_version":"2.1.0","time_elapsed":928178,"subject_id":"90108","group":"Group2","full_date":"2025-12-06T21:41:25.757Z","date":"2025-12-06","time":"21:41:25"},{"task":"memory_phase","broad_category":"M","image_png":"M_Gneiss_14.png","image_id":206,"category_name":"Gneiss","category":13,"distinct_rating":3.41,"distinct_type":"Bottom","rt":null,"stimulus":"Stimuli_Rocks480/M_Gneiss_14.png","response":null,"trial_type":"image-keyboard-response","trial_index":226,"plugin_version":"2.1.0","time_elapsed":930681,"subject_id":"90108","group":"Group2","full_date":"2025-12-06T21:41:25.757Z","date":"2025-12-06","time":"21:41:25"},{"rt":null,"stimulus":"<p style=\"font-size: 50px; margin: 0; text-align: center;\">+</p>","response":null,"trial_type":"html-keyboard-response","trial_index":227,"plugin_version":"2.1.0","time_elapsed":931683,"subject_id":"90108","group":"Group2","full_date":"2025-12-06T21:41:25.757Z","date":"2025-12-06","time":"21:41:25"},{"task":"memory_phase","broad_category":"S","image_png":"S_Conglomerate_14.png","image_id":382,"category_name":"Conglomerate","category":24,"distinct_rating":6.86,"distinct_type":"Top","rt":null,"stimulus":"Stimuli_Rocks480/S_Conglomerate_14.png","response":null,"trial_type":"image-keyboard-response","trial_index":228,"plugin_version":"2.1.0","time_elapsed":934187,"subject_id":"90108","group":"Group2","full_date":"2025-12-06T21:41:25.757Z","date":"2025-12-06","time":"21:41:25"},{"rt":null,"stimulus":"<p style=\"font-size: 50px; margin: 0; text-align: center;\">+</p>","response":null,"trial_type":"html-keyboard-response","trial_index":229,"plugin_version":"2.1.0","time_elapsed":935190,"subject_id":"90108","group":"Group2","full_date":"2025-12-06T21:41:25.757Z","date":"2025-12-06","time":"21:41:25"},{"task":"memory_phase","broad_category":"I","image_png":"I_Pegmatite_03.png","image_id":99,"category_name":"Pegmatite","category":7,"distinct_rating":7.24,"distinct_type":"Top","rt":null,"stimulus":"Stimuli_Rocks480/I_Pegmatite_03.png","response":null,"trial_type":"image-keyboard-response","trial_index":230,"plugin_version":"2.1.0","time_elapsed":937694,"subject_id":"90108","group":"Group2","full_date":"2025-12-06T21:41:25.757Z","date":"2025-12-06","time":"21:41:25"},{"rt":null,"stimulus":"<p style=\"font-size: 50px; margin: 0; text-align: center;\">+</p>","response":null,"trial_type":"html-keyboard-response","trial_index":231,"plugin_version":"2.1.0","time_elapsed":938696,"subject_id":"90108","group":"Group2","full_date":"2025-12-06T21:41:25.757Z","date":"2025-12-06","time":"21:41:25"},{"task":"memory_phase","broad_category":"I","image_png":"I_Diorite_01.png","image_id":33,"category_name":"Diorite","category":3,"distinct_rating":2.97,"distinct_type":"Bottom","rt":null,"stimulus":"Stimuli_Rocks480/I_Diorite_01.png","response":null,"trial_type":"image-keyboard-response","trial_index":232,"plugin_version":"2.1.0","time_elapsed":941199,"subject_id":"90108","group":"Group2","full_date":"2025-12-06T21:41:25.757Z","date":"2025-12-06","time":"21:41:25"},{"rt":null,"stimulus":"<p style=\"font-size: 50px; margin: 0; text-align: center;\">+</p>","response":null,"trial_type":"html-keyboard-response","trial_index":233,"plugin_version":"2.1.0","time_elapsed":942201,"subject_id":"90108","group":"Group2","full_date":"2025-12-06T21:41:25.757Z","date":"2025-12-06","time":"21:41:25"},{"task":"memory_phase","broad_category":"I","image_png":"I_Pumice_01.png","image_id":129,"category_name":"Pumice","category":9,"distinct_rating":3.25,"distinct_type":"Bottom","rt":null,"stimulus":"Stimuli_Rocks480/I_Pumice_01.png","response":null,"trial_type":"image-keyboard-response","trial_index":234,"plugin_version":"2.1.0","time_elapsed":944705,"subject_id":"90108","group":"Group2","full_date":"2025-12-06T21:41:25.757Z","date":"2025-12-06","time":"21:41:25"},{"rt":null,"stimulus":"<p style=\"font-size: 50px; margin: 0; text-align: center;\">+</p>","response":null,"trial_type":"html-keyboard-response","trial_index":235,"plugin_version":"2.1.0","time_elapsed":945707,"subject_id":"90108","group":"Group2","full_date":"2025-12-06T21:41:25.757Z","date":"2025-12-06","time":"21:41:25"},{"task":"memory_phase","broad_category":"I","image_png":"I_Obsidian_06.png","image_id":86,"category_name":"Obsidian","category":6,"distinct_rating":8.01,"distinct_type":"Top","rt":null,"stimulus":"Stimuli_Rocks480/I_Obsidian_06.png","response":null,"trial_type":"image-keyboard-response","trial_index":236,"plugin_version":"2.1.0","time_elapsed":948211,"subject_id":"90108","group":"Group2","full_date":"2025-12-06T21:41:25.757Z","date":"2025-12-06","time":"21:41:25"},{"rt":null,"stimulus":"<p style=\"font-size: 50px; margin: 0; text-align: center;\">+</p>","response":null,"trial_type":"html-keyboard-response","trial_index":237,"plugin_version":"2.1.0","time_elapsed":949213,"subject_id":"90108","group":"Group2","full_date":"2025-12-06T21:41:25.757Z","date":"2025-12-06","time":"21:41:25"},{"task":"memory_phase","broad_category":"I","image_png":"I_Pumice_13.png","image_id":141,"category_name":"Pumice","category":9,"distinct_rating":3.12,"distinct_type":"Bottom","rt":null,"stimulus":"Stimuli_Rocks480/I_Pumice_13.png","response":null,"trial_type":"image-keyboard-response","trial_index":238,"plugin_version":"2.1.0","time_elapsed":951717,"subject_id":"90108","group":"Group2","full_date":"2025-12-06T21:41:25.757Z","date":"2025-12-06","time":"21:41:25"},{"rt":null,"stimulus":"<p style=\"font-size: 50px; margin: 0; text-align: center;\">+</p>","response":null,"trial_type":"html-keyboard-response","trial_index":239,"plugin_version":"2.1.0","time_elapsed":952719,"subject_id":"90108","group":"Group2","full_date":"2025-12-06T21:41:25.757Z","date":"2025-12-06","time":"21:41:25"},{"task":"memory_phase","broad_category":"I","image_png":"I_Basalt_10.png","image_id":26,"category_name":"Basalt","category":2,"distinct_rating":2.76,"distinct_type":"Bottom","rt":null,"stimulus":"Stimuli_Rocks480/I_Basalt_10.png","response":null,"trial_type":"image-keyboard-response","trial_index":240,"plugin_version":"2.1.0","time_elapsed":955222,"subject_id":"90108","group":"Group2","full_date":"2025-12-06T21:41:25.757Z","date":"2025-12-06","time":"21:41:25"},{"rt":null,"stimulus":"<p style=\"font-size: 50px; margin: 0; text-align: center;\">+</p>","response":null,"trial_type":"html-keyboard-response","trial_index":241,"plugin_version":"2.1.0","time_elapsed":956225,"subject_id":"90108","group":"Group2","full_date":"2025-12-06T21:41:25.757Z","date":"2025-12-06","time":"21:41:25"},{"task":"memory_phase","broad_category":"M","image_png":"M_Slate_14.png","image_id":318,"category_name":"Slate","category":20,"distinct_rating":2.58,"distinct_type":"Bottom","rt":null,"stimulus":"Stimuli_Rocks480/M_Slate_14.png","response":null,"trial_type":"image-keyboard-response","trial_index":242,"plugin_version":"2.1.0","time_elapsed":958728,"subject_id":"90108","group":"Group2","full_date":"2025-12-06T21:41:25.757Z","date":"2025-12-06","time":"21:41:25"},{"rt":null,"stimulus":"<p style=\"font-size: 50px; margin: 0; text-align: center;\">+</p>","response":null,"trial_type":"html-keyboard-response","trial_index":243,"plugin_version":"2.1.0","time_elapsed":959730,"subject_id":"90108","group":"Group2","full_date":"2025-12-06T21:41:25.757Z","date":"2025-12-06","time":"21:41:25"},{"task":"memory_phase","broad_category":"I","image_png":"I_Basalt_08.png","image_id":24,"category_name":"Basalt","category":2,"distinct_rating":2.31,"distinct_type":"Bottom","rt":null,"stimulus":"Stimuli_Rocks480/I_Basalt_08.png","response":null,"trial_type":"image-keyboard-response","trial_index":244,"plugin_version":"2.1.0","time_elapsed":962233,"subject_id":"90108","group":"Group2","full_date":"2025-12-06T21:41:25.757Z","date":"2025-12-06","time":"21:41:25"},{"rt":null,"stimulus":"<p style=\"font-size: 50px; margin: 0; text-align: center;\">+</p>","response":null,"trial_type":"html-keyboard-response","trial_index":245,"plugin_version":"2.1.0","time_elapsed":963236,"subject_id":"90108","group":"Group2","full_date":"2025-12-06T21:41:25.757Z","date":"2025-12-06","time":"21:41:25"},{"task":"memory_phase","broad_category":"I","image_png":"I_Gabbro_02.png","image_id":50,"category_name":"Gabbro","category":4,"distinct_rating":2.73,"distinct_type":"Bottom","rt":null,"stimulus":"Stimuli_Rocks480/I_Gabbro_02.png","response":null,"trial_type":"image-keyboard-response","trial_index":246,"plugin_version":"2.1.0","time_elapsed":965739,"subject_id":"90108","group":"Group2","full_date":"2025-12-06T21:41:25.757Z","date":"2025-12-06","time":"21:41:25"},{"rt":null,"stimulus":"<p style=\"font-size: 50px; margin: 0; text-align: center;\">+</p>","response":null,"trial_type":"html-keyboard-response","trial_index":247,"plugin_version":"2.1.0","time_elapsed":966742,"subject_id":"90108","group":"Group2","full_date":"2025-12-06T21:41:25.757Z","date":"2025-12-06","time":"21:41:25"},{"task":"memory_phase","broad_category":"I","image_png":"I_Gabbro_12.png","image_id":60,"category_name":"Gabbro","category":4,"distinct_rating":2.6,"distinct_type":"Bottom","rt":null,"stimulus":"Stimuli_Rocks480/I_Gabbro_12.png","response":null,"trial_type":"image-keyboard-response","trial_index":248,"plugin_version":"2.1.0","time_elapsed":969246,