[{"width":1440,"height":731,"webaudio":true,"browser":"chrome","browser_version":"142.0.0","mobile":false,"os":"Windows 10","fullscreen":true,"vsync_rate":33.17,"webcam":true,"microphone":true,"trial_type":"browser-check","trial_index":0,"plugin_version":"2.1.0","time_elapsed":1819,"subject_id":"88650","group":"Group2","full_date":"2025-12-05T01:01:54.629Z","date":"2025-12-05","time":"01:01:54"},{"success":true,"timeout":false,"failed_images":[],"failed_audio":[],"failed_video":[],"trial_type":"preload","trial_index":1,"plugin_version":"2.1.0","time_elapsed":4729,"subject_id":"88650","group":"Group2","full_date":"2025-12-05T01:01:54.629Z","date":"2025-12-05","time":"01:01:54"},{"rt":4446317,"url":"SONA_consent_memorability.html","trial_type":"external-html","trial_index":2,"plugin_version":"2.1.0","time_elapsed":4451072,"subject_id":"88650","group":"Group2","full_date":"2025-12-05T01:01:54.629Z","date":"2025-12-05","time":"01:01:54"},{"success":true,"rt":1314,"trial_type":"fullscreen","trial_index":3,"plugin_version":"2.1.0","time_elapsed":4453395,"subject_id":"88650","group":"Group2","full_date":"2025-12-05T01:01:54.629Z","date":"2025-12-05","time":"01:01:54"},{"rt":44071,"stimulus":"<div style=\"max-width: 760px; margin: auto; font-size: 20px; line-height: 1.5;\">\n      <h1 style=\"text-align:center; font-size: 30px;\">Instructions</h1>\n      <p>\n        Welcome to the study on <b>visual memory</b>. This experiment consists of <b>two phases</b>: \n        a <b>study phase</b> and a <b>test phase</b>.\n      </p>\n      <p>\n        In the study phase, you will see a series of rock images along with their category labels.\n        The images will appear one at a time.\n        <b>Your task</b> is to learn the categories to which the rock images belong \n        and to remember each image as accurately as possible.\n      </p> \n      <p>\n        Note that we will repeat the study phase <b>3 times</b>, \n        so you will have multiple opportunities to see and remember each image.\n      </p>\n      <p>\n        After the study phase, <b>your memory will be tested</b>. \n        Additional instructions for the test phase will be provided at that time.\n      </p>\n      <p>\n        If your computer has multiple <b>language settings</b> (e.g., English and another language),\n        please make sure it is set to English before starting.\n      </p>\n      <p>\n        You can track your progress using the <b>completion bar</b> at the top of the screen. \n        Please note that the bar will refresh when the test phase begins \n        to give you an accurate sense of your progress in both phases.\n      </p> \n      <p>\n        Press the button below when you are ready to begin.\n      </p>\n    </div>","response":0,"trial_type":"html-button-response","trial_index":4,"plugin_version":"2.1.0","time_elapsed":4497469,"subject_id":"88650","group":"Group2","full_date":"2025-12-05T01:01:54.629Z","date":"2025-12-05","time":"01:01:54"},{"rt":null,"stimulus":"<p style=\"font-size: 50px; margin: 0; text-align: center;\">+</p>","response":null,"trial_type":"html-keyboard-response","trial_index":5,"plugin_version":"2.1.0","time_elapsed":4498471,"subject_id":"88650","group":"Group2","full_date":"2025-12-05T01:01:54.629Z","date":"2025-12-05","time":"01:01:54"},{"task":"memory_phase","broad_category":"M","image_png":"M_Gneiss_15.png","image_id":207,"category_name":"Gneiss","category":13,"distinct_rating":3.11,"distinct_type":"Bottom","rt":null,"stimulus":"Stimuli_Rocks480/M_Gneiss_15.png","response":null,"trial_type":"image-keyboard-response","trial_index":6,"plugin_version":"2.1.0","time_elapsed":4500975,"subject_id":"88650","group":"Group2","full_date":"2025-12-05T01:01:54.629Z","date":"2025-12-05","time":"01:01:54"},{"rt":null,"stimulus":"<p style=\"font-size: 50px; margin: 0; text-align: center;\">+</p>","response":null,"trial_type":"html-keyboard-response","trial_index":7,"plugin_version":"2.1.0","time_elapsed":4501977,"subject_id":"88650","group":"Group2","full_date":"2025-12-05T01:01:54.629Z","date":"2025-12-05","time":"01:01:54"},{"task":"memory_phase","broad_category":"S","image_png":"S_Dolomite_01.png","image_id":385,"category_name":"Dolomite","category":25,"distinct_rating":1.43,"distinct_type":"Bottom","rt":null,"stimulus":"Stimuli_Rocks480/S_Dolomite_01.png","response":null,"trial_type":"image-keyboard-response","trial_index":8,"plugin_version":"2.1.0","time_elapsed":4504483,"subject_id":"88650","group":"Group2","full_date":"2025-12-05T01:01:54.629Z","date":"2025-12-05","time":"01:01:54"},{"rt":null,"stimulus":"<p style=\"font-size: 50px; margin: 0; text-align: center;\">+</p>","response":null,"trial_type":"html-keyboard-response","trial_index":9,"plugin_version":"2.1.0","time_elapsed":4505497,"subject_id":"88650","group":"Group2","full_date":"2025-12-05T01:01:54.629Z","date":"2025-12-05","time":"01:01:54"},{"task":"memory_phase","broad_category":"M","image_png":"M_Quartzite_15.png","image_id":287,"category_name":"Quartzite","category":18,"distinct_rating":2.19,"distinct_type":"Bottom","rt":null,"stimulus":"Stimuli_Rocks480/M_Quartzite_15.png","response":null,"trial_type":"image-keyboard-response","trial_index":10,"plugin_version":"2.1.0","time_elapsed":4508006,"subject_id":"88650","group":"Group2","full_date":"2025-12-05T01:01:54.629Z","date":"2025-12-05","time":"01:01:54"},{"rt":null,"stimulus":"<p style=\"font-size: 50px; margin: 0; text-align: center;\">+</p>","response":null,"trial_type":"html-keyboard-response","trial_index":11,"plugin_version":"2.1.0","time_elapsed":4509015,"subject_id":"88650","group":"Group2","full_date":"2025-12-05T01:01:54.629Z","date":"2025-12-05","time":"01:01:54"},{"task":"memory_phase","broad_category":"S","image_png":"S_Chert_13.png","image_id":365,"category_name":"Chert","category":23,"distinct_rating":6.57,"distinct_type":"Top","rt":null,"stimulus":"Stimuli_Rocks480/S_Chert_13.png","response":null,"trial_type":"image-keyboard-response","trial_index":12,"plugin_version":"2.1.0","time_elapsed":4511529,"subject_id":"88650","group":"Group2","full_date":"2025-12-05T01:01:54.629Z","date":"2025-12-05","time":"01:01:54"},{"rt":null,"stimulus":"<p style=\"font-size: 50px; margin: 0; text-align: center;\">+</p>","response":null,"trial_type":"html-keyboard-response","trial_index":13,"plugin_version":"2.1.0","time_elapsed":4512544,"subject_id":"88650","group":"Group2","full_date":"2025-12-05T01:01:54.629Z","date":"2025-12-05","time":"01:01:54"},{"task":"memory_phase","broad_category":"I","image_png":"I_Pumice_13.png","image_id":141,"category_name":"Pumice","category":9,"distinct_rating":3.12,"distinct_type":"Bottom","rt":null,"stimulus":"Stimuli_Rocks480/I_Pumice_13.png","response":null,"trial_type":"image-keyboard-response","trial_index":14,"plugin_version":"2.1.0","time_elapsed":4515049,"subject_id":"88650","group":"Group2","full_date":"2025-12-05T01:01:54.629Z","date":"2025-12-05","time":"01:01:54"},{"rt":null,"stimulus":"<p style=\"font-size: 50px; margin: 0; text-align: center;\">+</p>","response":null,"trial_type":"html-keyboard-response","trial_index":15,"plugin_version":"2.1.0","time_elapsed":4516062,"subject_id":"88650","group":"Group2","full_date":"2025-12-05T01:01:54.629Z","date":"2025-12-05","time":"01:01:54"},{"task":"memory_phase","broad_category":"M","image_png":"M_Slate_14.png","image_id":318,"category_name":"Slate","category":20,"distinct_rating":2.58,"distinct_type":"Bottom","rt":null,"stimulus":"Stimuli_Rocks480/M_Slate_14.png","response":null,"trial_type":"image-keyboard-response","trial_index":16,"plugin_version":"2.1.0","time_elapsed":4518568,"subject_id":"88650","group":"Group2","full_date":"2025-12-05T01:01:54.629Z","date":"2025-12-05","time":"01:01:54"},{"rt":null,"stimulus":"<p style=\"font-size: 50px; margin: 0; text-align: center;\">+</p>","response":null,"trial_type":"html-keyboard-response","trial_index":17,"plugin_version":"2.1.0","time_elapsed":4519576,"subject_id":"88650","group":"Group2","full_date":"2025-12-05T01:01:54.629Z","date":"2025-12-05","time":"01:01:54"},{"task":"memory_phase","broad_category":"I","image_png":"I_Obsidian_06.png","image_id":86,"category_name":"Obsidian","category":6,"distinct_rating":8.01,"distinct_type":"Top","rt":null,"stimulus":"Stimuli_Rocks480/I_Obsidian_06.png","response":null,"trial_type":"image-keyboard-response","trial_index":18,"plugin_version":"2.1.0","time_elapsed":4522085,"subject_id":"88650","group":"Group2","full_date":"2025-12-05T01:01:54.629Z","date":"2025-12-05","time":"01:01:54"},{"rt":null,"stimulus":"<p style=\"font-size: 50px; margin: 0; text-align: center;\">+</p>","response":null,"trial_type":"html-keyboard-response","trial_index":19,"plugin_version":"2.1.0","time_elapsed":4523096,"subject_id":"88650","group":"Group2","full_date":"2025-12-05T01:01:54.629Z","date":"2025-12-05","time":"01:01:54"},{"task":"memory_phase","broad_category":"M","image_png":"M_Phyllite_02.png","image_id":258,"category_name":"Phyllite","category":17,"distinct_rating":2.89,"distinct_type":"Bottom","rt":null,"stimulus":"Stimuli_Rocks480/M_Phyllite_02.png","response":null,"trial_type":"image-keyboard-response","trial_index":20,"plugin_version":"2.1.0","time_elapsed":4525610,"subject_id":"88650","group":"Group2","full_date":"2025-12-05T01:01:54.629Z","date":"2025-12-05","time":"01:01:54"},{"rt":null,"stimulus":"<p style=\"font-size: 50px; margin: 0; text-align: center;\">+</p>","response":null,"trial_type":"html-keyboard-response","trial_index":21,"plugin_version":"2.1.0","time_elapsed":4526626,"subject_id":"88650","group":"Group2","full_date":"2025-12-05T01:01:54.629Z","date":"2025-12-05","time":"01:01:54"},{"task":"memory_phase","broad_category":"I","image_png":"I_Diorite_01.png","image_id":33,"category_name":"Diorite","category":3,"distinct_rating":2.97,"distinct_type":"Bottom","rt":null,"stimulus":"Stimuli_Rocks480/I_Diorite_01.png","response":null,"trial_type":"image-keyboard-response","trial_index":22,"plugin_version":"2.1.0","time_elapsed":4529141,"subject_id":"88650","group":"Group2","full_date":"2025-12-05T01:01:54.629Z","date":"2025-12-05","time":"01:01:54"},{"rt":null,"stimulus":"<p style=\"font-size: 50px; margin: 0; text-align: center;\">+</p>","response":null,"trial_type":"html-keyboard-response","trial_index":23,"plugin_version":"2.1.0","time_elapsed":4530157,"subject_id":"88650","group":"Group2","full_date":"2025-12-05T01:01:54.629Z","date":"2025-12-05","time":"01:01:54"},{"task":"memory_phase","broad_category":"M","image_png":"M_Phyllite_13.png","image_id":269,"category_name":"Phyllite","category":17,"distinct_rating":2.8,"distinct_type":"Bottom","rt":null,"stimulus":"Stimuli_Rocks480/M_Phyllite_13.png","response":null,"trial_type":"image-keyboard-response","trial_index":24,"plugin_version":"2.1.0","time_elapsed":4532669,"subject_id":"88650","group":"Group2","full_date":"2025-12-05T01:01:54.629Z","date":"2025-12-05","time":"01:01:54"},{"rt":null,"stimulus":"<p style=\"font-size: 50px; margin: 0; text-align: center;\">+</p>","response":null,"trial_type":"html-keyboard-response","trial_index":25,"plugin_version":"2.1.0","time_elapsed":4533682,"subject_id":"88650","group":"Group2","full_date":"2025-12-05T01:01:54.629Z","date":"2025-12-05","time":"01:01:54"},{"task":"memory_phase","broad_category":"I","image_png":"I_Pegmatite_11.png","image_id":107,"category_name":"Pegmatite","category":7,"distinct_rating":7.11,"distinct_type":"Top","rt":null,"stimulus":"Stimuli_Rocks480/I_Pegmatite_11.png","response":null,"trial_type":"image-keyboard-response","trial_index":26,"plugin_version":"2.1.0","time_elapsed":4536188,"subject_id":"88650","group":"Group2","full_date":"2025-12-05T01:01:54.629Z","date":"2025-12-05","time":"01:01:54"},{"rt":null,"stimulus":"<p style=\"font-size: 50px; margin: 0; text-align: center;\">+</p>","response":null,"trial_type":"html-keyboard-response","trial_index":27,"plugin_version":"2.1.0","time_elapsed":4537195,"subject_id":"88650","group":"Group2","full_date":"2025-12-05T01:01:54.629Z","date":"2025-12-05","time":"01:01:54"},{"task":"memory_phase","broad_category":"I","image_png":"I_Basalt_13.png","image_id":29,"category_name":"Basalt","category":2,"distinct_rating":2.68,"distinct_type":"Bottom","rt":null,"stimulus":"Stimuli_Rocks480/I_Basalt_13.png","response":null,"trial_type":"image-keyboard-response","trial_index":28,"plugin_version":"2.1.0","time_elapsed":4539698,"subject_id":"88650","group":"Group2","full_date":"2025-12-05T01:01:54.629Z","date":"2025-12-05","time":"01:01:54"},{"rt":null,"stimulus":"<p style=\"font-size: 50px; margin: 0; text-align: center;\">+</p>","response":null,"trial_type":"html-keyboard-response","trial_index":29,"plugin_version":"2.1.0","time_elapsed":4540703,"subject_id":"88650","group":"Group2","full_date":"2025-12-05T01:01:54.629Z","date":"2025-12-05","time":"01:01:54"},{"task":"memory_phase","broad_category":"S","image_png":"S_Dolomite_16.png","image_id":400,"category_name":"Dolomite","category":25,"distinct_rating":1.71,"distinct_type":"Bottom","rt":null,"stimulus":"Stimuli_Rocks480/S_Dolomite_16.png","response":null,"trial_type":"image-keyboard-response","trial_index":30,"plugin_version":"2.1.0","time_elapsed":4543210,"subject_id":"88650","group":"Group2","full_date":"2025-12-05T01:01:54.629Z","date":"2025-12-05","time":"01:01:54"},{"rt":null,"stimulus":"<p style=\"font-size: 50px; margin: 0; text-align: center;\">+</p>","response":null,"trial_type":"html-keyboard-response","trial_index":31,"plugin_version":"2.1.0","time_elapsed":4544212,"subject_id":"88650","group":"Group2","full_date":"2025-12-05T01:01:54.629Z","date":"2025-12-05","time":"01:01:54"},{"task":"memory_phase","broad_category":"I","image_png":"I_Gabbro_12.png","image_id":60,"category_name":"Gabbro","category":4,"distinct_rating":2.6,"distinct_type":"Bottom","rt":null,"stimulus":"Stimuli_Rocks480/I_Gabbro_12.png","response":null,"trial_type":"image-keyboard-response","trial_index":32,"plugin_version":"2.1.0","time_elapsed":4546723,"subject_id":"88650","group":"Group2","full_date":"2025-12-05T01:01:54.629Z","date":"2025-12-05","time":"01:01:54"},{"rt":null,"stimulus":"<p style=\"font-size: 50px; margin: 0; text-align: center;\">+</p>","response":null,"trial_type":"html-keyboard-response","trial_index":33,"plugin_version":"2.1.0","time_elapsed":4547732,"subject_id":"88650","group":"Group2","full_date":"2025-12-05T01:01:54.629Z","date":"2025-12-05","time":"01:01:54"},{"task":"memory_phase","broad_category":"I","image_png":"I_Rhyolite_08.png","image_id":152,"category_name":"Rhyolite","category":10,"distinct_rating":1.38,"distinct_type":"Bottom","rt":null,"stimulus":"Stimuli_Rocks480/I_Rhyolite_08.png","response":null,"trial_type":"image-keyboard-response","trial_index":34,"plugin_version":"2.1.0","time_elapsed":4550235,"subject_id":"88650","group":"Group2","full_date":"2025-12-05T01:01:54.629Z","date":"2025-12-05","time":"01:01:54"},{"rt":null,"stimulus":"<p style=\"font-size: 50px; margin: 0; text-align: center;\">+</p>","response":null,"trial_type":"html-keyboard-response","trial_index":35,"plugin_version":"2.1.0","time_elapsed":4551238,"subject_id":"88650","group":"Group2","full_date":"2025-12-05T01:01:54.629Z","date":"2025-12-05","time":"01:01:54"},{"task":"memory_phase","broad_category":"I","image_png":"I_Basalt_10.png","image_id":26,"category_name":"Basalt","category":2,"distinct_rating":2.76,"distinct_type":"Bottom","rt":null,"stimulus":"Stimuli_Rocks480/I_Basalt_10.png","response":null,"trial_type":"image-keyboard-response","trial_index":36,"plugin_version":"2.1.0","time_elapsed":4553752,"subject_id":"88650","group":"Group2","full_date":"2025-12-05T01:01:54.629Z","date":"2025-12-05","time":"01:01:54"},{"rt":null,"stimulus":"<p style=\"font-size: 50px; margin: 0; text-align: center;\">+</p>","response":null,"trial_type":"html-keyboard-response","trial_index":37,"plugin_version":"2.1.0","time_elapsed":4554764,"subject_id":"88650","group":"Group2","full_date":"2025-12-05T01:01:54.629Z","date":"2025-12-05","time":"01:01:54"},{"task":"memory_phase","broad_category":"M","image_png":"M_Quartzite_12.png","image_id":284,"category_name":"Quartzite","category":18,"distinct_rating":1.92,"distinct_type":"Bottom","rt":null,"stimulus":"Stimuli_Rocks480/M_Quartzite_12.png","response":null,"trial_type":"image-keyboard-response","trial_index":38,"plugin_version":"2.1.0","time_elapsed":4557275,"subject_id":"88650","group":"Group2","full_date":"2025-12-05T01:01:54.629Z","date":"2025-12-05","time":"01:01:54"},{"rt":null,"stimulus":"<p style=\"font-size: 50px; margin: 0; text-align: center;\">+</p>","response":null,"trial_type":"html-keyboard-response","trial_index":39,"plugin_version":"2.1.0","time_elapsed":4558285,"subject_id":"88650","group":"Group2","full_date":"2025-12-05T01:01:54.629Z","date":"2025-12-05","time":"01:01:54"},{"task":"memory_phase","broad_category":"I","image_png":"I_Andesite_03.png","image_id":3,"category_name":"Andesite","category":1,"distinct_rating":3.17,"distinct_type":"Bottom","rt":null,"stimulus":"Stimuli_Rocks480/I_Andesite_03.png","response":null,"trial_type":"image-keyboard-response","trial_index":40,"plugin_version":"2.1.0","time_elapsed":4560794,"subject_id":"88650","group":"Group2","full_date":"2025-12-05T01:01:54.629Z","date":"2025-12-05","time":"01:01:54"},{"rt":null,"stimulus":"<p style=\"font-size: 50px; margin: 0; text-align: center;\">+</p>","response":null,"trial_type":"html-keyboard-response","trial_index":41,"plugin_version":"2.1.0","time_elapsed":4561798,"subject_id":"88650","group":"Group2","full_date":"2025-12-05T01:01:54.629Z","date":"2025-12-05","time":"01:01:54"},{"task":"memory_phase","broad_category":"M","image_png":"M_Gneiss_10.png","image_id":202,"category_name":"Gneiss","category":13,"distinct_rating":3.09,"distinct_type":"Bottom","rt":null,"stimulus":"Stimuli_Rocks480/M_Gneiss_10.png","response":null,"trial_type":"image-keyboard-response","trial_index":42,"plugin_version":"2.1.0","time_elapsed":4564300,"subject_id":"88650","group":"Group2","full_date":"2025-12-05T01:01:54.629Z","date":"2025-12-05","time":"01:01:54"},{"rt":null,"stimulus":"<p style=\"font-size: 50px; margin: 0; text-align: center;\">+</p>","response":null,"trial_type":"html-keyboard-response","trial_index":43,"plugin_version":"2.1.0","time_elapsed":4565317,"subject_id":"88650","group":"Group2","full_date":"2025-12-05T01:01:54.629Z","date":"2025-12-05","time":"01:01:54"},{"task":"memory_phase","broad_category":"S","image_png":"S_Shale_07.png","image_id":471,"category_name":"Shale","category":30,"distinct_rating":2.73,"distinct_type":"Bottom","rt":null,"stimulus":"Stimuli_Rocks480/S_Shale_07.png","response":null,"trial_type":"image-keyboard-response","trial_index":44,"plugin_version":"2.1.0","time_elapsed":4567831,"subject_id":"88650","group":"Group2","full_date":"2025-12-05T01:01:54.629Z","date":"2025-12-05","time":"01:01:54"},{"rt":null,"stimulus":"<p style=\"font-size: 50px; margin: 0; text-align: center;\">+</p>","response":null,"trial_type":"html-keyboard-response","trial_index":45,"plugin_version":"2.1.0","time_elapsed":4568841,"subject_id":"88650","group":"Group2","full_date":"2025-12-05T01:01:54.629Z","date":"2025-12-05","time":"01:01:54"},{"task":"memory_phase","broad_category":"S","image_png":"S_Sandstone_08.png","image_id":456,"category_name":"Sandstone","category":29,"distinct_rating":1.5,"distinct_type":"Bottom","rt":null,"stimulus":"Stimuli_Rocks480/S_Sandstone_08.png","response":null,"trial_type":"image-keyboard-response","trial_index":46,"plugin_version":"2.1.0","time_elapsed":4571344,"subject_id":"88650","group":"Group2","full_date":"2025-12-05T01:01:54.629Z","date":"2025-12-05","time":"01:01:54"},{"rt":null,"stimulus":"<p style=\"font-size: 50px; margin: 0; text-align: center;\">+</p>","response":null,"trial_type":"html-keyboard-response","trial_index":47,"plugin_version":"2.1.0","time_elapsed":4572361,"subject_id":"88650","group":"Group2","full_date":"2025-12-05T01:01:54.629Z","date":"2025-12-05","time":"01:01:54"},{"task":"memory_phase","broad_category":"I","image_png":"I_Gabbro_14.png","image_id":62,"category_name":"Gabbro","category":4,"distinct_rating":2.95,"distinct_type":"Bottom","rt":null,"stimulus":"Stimuli_Rocks480/I_Gabbro_14.png","response":null,"trial_type":"image-keyboard-response","trial_index":48,"plugin_version":"2.1.0","time_elapsed":4574873,"subject_id":"88650","group":"Group2","full_date":"2025-12-05T01:01:54.629Z","date":"2025-12-05","time":"01:01:54"},{"rt":null,"stimulus":"<p style=\"font-size: 50px; margin: 0; text-align: center;\">+</p>","response":null,"trial_type":"html-keyboard-response","trial_index":49,"plugin_version":"2.1.0","time_elapsed":4575888,"subject_id":"88650","group":"Group2","full_date":"2025-12-05T01:01:54.629Z","date":"2025-12-05","time":"01:01:54"},{"task":"memory_phase","broad_category":"S","image_png":"S_Dolomite_07.png","image_id":391,"category_name":"Dolomite","category":25,"distinct_rating":1.73,"distinct_type":"Bottom","rt":null,"stimulus":"Stimuli_Rocks480/S_Dolomite_07.png","response":null,"trial_type":"image-keyboard-response","trial_index":50,"plugin_version":"2.1.0","time_elapsed":4578395,"subject_id":"88650","group":"Group2","full_date":"2025-12-05T01:01:54.629Z","date":"2025-12-05","time":"01:01:54"},{"rt":null,"stimulus":"<p style=\"font-size: 50px; margin: 0; text-align: center;\">+</p>","response":null,"trial_type":"html-keyboard-response","trial_index":51,"plugin_version":"2.1.0","time_elapsed":4579412,"subject_id":"88650","group":"Group2","full_date":"2025-12-05T01:01:54.629Z","date":"2025-12-05","time":"01:01:54"},{"task":"memory_phase","broad_category":"M","image_png":"M_Marble_14.png","image_id":238,"category_name":"Marble","category":15,"distinct_rating":3.31,"distinct_type":"Bottom","rt":null,"stimulus":"Stimuli_Rocks480/M_Marble_14.png","response":null,"trial_type":"image-keyboard-response","trial_index":52,"plugin_version":"2.1.0","time_elapsed":4581923,"subject_id":"88650","group":"Group2","full_date":"2025-12-05T01:01:54.629Z","date":"2025-12-05","time":"01:01:54"},{"rt":null,"stimulus":"<p style=\"font-size: 50px; margin: 0; text-align: center;\">+</p>","response":null,"trial_type":"html-keyboard-response","trial_index":53,"plugin_version":"2.1.0","time_elapsed":4582930,"subject_id":"88650","group":"Group2","full_date":"2025-12-05T01:01:54.629Z","date":"2025-12-05","time":"01:01:54"},{"task":"memory_phase","broad_category":"S","image_png":"S_Shale_03.png","image_id":467,"category_name":"Shale","category":30,"distinct_rating":1.95,"distinct_type":"Bottom","rt":null,"stimulus":"Stimuli_Rocks480/S_Shale_03.png","response":null,"trial_type":"image-keyboard-response","trial_index":54,"plugin_version":"2.1.0","time_elapsed":4585440,"subject_id":"88650","group":"Group2","full_date":"2025-12-05T01:01:54.629Z","date":"2025-12-05","time":"01:01:54"},{"rt":1158,"stimulus":"<p style=\"max-width: 760px; margin: auto; font-size: 35px; line-height: 1.5;\">Press SPACE to continue study phase</p>","response":" ","trial_type":"html-keyboard-response","trial_index":55,"plugin_version":"2.1.0","time_elapsed":4586600,"subject_id":"88650","group":"Group2","full_date":"2025-12-05T01:01:54.629Z","date":"2025-12-05","time":"01:01:54"},{"rt":null,"stimulus":"<p style=\"font-size: 50px; margin: 0; text-align: center;\">+</p>","response":null,"trial_type":"html-keyboard-response","trial_index":56,"plugin_version":"2.1.0","time_elapsed":4587603,"subject_id":"88650","group":"Group2","full_date":"2025-12-05T01:01:54.629Z","date":"2025-12-05","time":"01:01:54"},{"task":"memory_phase","broad_category":"S","image_png":"S_Sandstone_11.png","image_id":459,"category_name":"Sandstone","category":29,"distinct_rating":1.82,"distinct_type":"Bottom","rt":null,"stimulus":"Stimuli_Rocks480/S_Sandstone_11.png","response":null,"trial_type":"image-keyboard-response","trial_index":57,"plugin_version":"2.1.0","time_elapsed":4590109,"subject_id":"88650","group":"Group2","full_date":"2025-12-05T01:01:54.629Z","date":"2025-12-05","time":"01:01:54"},{"rt":null,"stimulus":"<p style=\"font-size: 50px; margin: 0; text-align: center;\">+</p>","response":null,"trial_type":"html-keyboard-response","trial_index":58,"plugin_version":"2.1.0","time_elapsed":4591124,"subject_id":"88650","group":"Group2","full_date":"2025-12-05T01:01:54.629Z","date":"2025-12-05","time":"01:01:54"},{"task":"memory_phase","broad_category":"M","image_png":"M_Quartzite_07.png","image_id":279,"category_name":"Quartzite","category":18,"distinct_rating":1.97,"distinct_type":"Bottom","rt":null,"stimulus":"Stimuli_Rocks480/M_Quartzite_07.png","response":null,"trial_type":"image-keyboard-response","trial_index":59,"plugin_version":"2.1.0","time_elapsed":4593642,"subject_id":"88650","group":"Group2","full_date":"2025-12-05T01:01:54.629Z","date":"2025-12-05","time":"01:01:54"},{"rt":null,"stimulus":"<p style=\"font-size: 50px; margin: 0; text-align: center;\">+</p>","response":null,"trial_type":"html-keyboard-response","trial_index":60,"plugin_version":"2.1.0","time_elapsed":4594657,"subject_id":"88650","group":"Group2","full_date":"2025-12-05T01:01:54.629Z","date":"2025-12-05","time":"01:01:54"},{"task":"memory_phase","broad_category":"M","image_png":"M_Phyllite_05.png","image_id":261,"category_name":"Phyllite","category":17,"distinct_rating":2.14,"distinct_type":"Bottom","rt":null,"stimulus":"Stimuli_Rocks480/M_Phyllite_05.png","response":null,"trial_type":"image-keyboard-response","trial_index":61,"plugin_version":"2.1.0","time_elapsed":4597161,"subject_id":"88650","group":"Group2","full_date":"2025-12-05T01:01:54.629Z","date":"2025-12-05","time":"01:01:54"},{"rt":null,"stimulus":"<p style=\"font-size: 50px; margin: 0; text-align: center;\">+</p>","response":null,"trial_type":"html-keyboard-response","trial_index":62,"plugin_version":"2.1.0","time_elapsed":4598169,"subject_id":"88650","group":"Group2","full_date":"2025-12-05T01:01:54.629Z","date":"2025-12-05","time":"01:01:54"},{"task":"memory_phase","broad_category":"I","image_png":"I_Andesite_09.png","image_id":9,"category_name":"Andesite","category":1,"distinct_rating":2.49,"distinct_type":"Bottom","rt":null,"stimulus":"Stimuli_Rocks480/I_Andesite_09.png","response":null,"trial_type":"image-keyboard-response","trial_index":63,"plugin_version":"2.1.0","time_elapsed":4600684,"subject_id":"88650","group":"Group2","full_date":"2025-12-05T01:01:54.629Z","date":"2025-12-05","time":"01:01:54"},{"rt":null,"stimulus":"<p style=\"font-size: 50px; margin: 0; text-align: center;\">+</p>","response":null,"trial_type":"html-keyboard-response","trial_index":64,"plugin_version":"2.1.0","time_elapsed":4601701,"subject_id":"88650","group":"Group2","full_date":"2025-12-05T01:01:54.629Z","date":"2025-12-05","time":"01:01:54"},{"task":"memory_phase","broad_category":"I","image_png":"I_Rhyolite_10.png","image_id":154,"category_name":"Rhyolite","category":10,"distinct_rating":2.88,"distinct_type":"Bottom","rt":null,"stimulus":"Stimuli_Rocks480/I_Rhyolite_10.png","response":null,"trial_type":"image-keyboard-response","trial_index":65,"plugin_version":"2.1.0","time_elapsed":4604205,"subject_id":"88650","group":"Group2","full_date":"2025-12-05T01:01:54.629Z","date":"2025-12-05","time":"01:01:54"},{"rt":null,"stimulus":"<p style=\"font-size: 50px; margin: 0; text-align: center;\">+</p>","response":null,"trial_type":"html-keyboard-response","trial_index":66,"plugin_version":"2.1.0","time_elapsed":4605222,"subject_id":"88650","group":"Group2","full_date":"2025-12-05T01:01:54.629Z","date":"2025-12-05","time":"01:01:54"},{"task":"memory_phase","broad_category":"I","image_png":"I_Diorite_15.png","image_id":47,"category_name":"Diorite","category":3,"distinct_rating":3.05,"distinct_type":"Bottom","rt":null,"stimulus":"Stimuli_Rocks480/I_Diorite_15.png","response":null,"trial_type":"image-keyboard-response","trial_index":67,"plugin_version":"2.1.0","time_elapsed":4607731,"subject_id":"88650","group":"Group2","full_date":"2025-12-05T01:01:54.629Z","date":"2025-12-05","time":"01:01:54"},{"rt":null,"stimulus":"<p style=\"font-size: 50px; margin: 0; text-align: center;\">+</p>","response":null,"trial_type":"html-keyboard-response","trial_index":68,"plugin_version":"2.1.0","time_elapsed":4608737,"subject_id":"88650","group":"Group2","full_date":"2025-12-05T01:01:54.629Z","date":"2025-12-05","time":"01:01:54"},{"task":"memory_phase","broad_category":"I","image_png":"I_Diorite_10.png","image_id":42,"category_name":"Diorite","category":3,"distinct_rating":2.84,"distinct_type":"Bottom","rt":null,"stimulus":"Stimuli_Rocks480/I_Diorite_10.png","response":null,"trial_type":"image-keyboard-response","trial_index":69,"plugin_version":"2.1.0","time_elapsed":4611254,"subject_id":"88650","group":"Group2","full_date":"2025-12-05T01:01:54.629Z","date":"2025-12-05","time":"01:01:54"},{"rt":null,"stimulus":"<p style=\"font-size: 50px; margin: 0; text-align: center;\">+</p>","response":null,"trial_type":"html-keyboard-response","trial_index":70,"plugin_version":"2.1.0","time_elapsed":4612264,"subject_id":"88650","group":"Group2","full_date":"2025-12-05T01:01:54.629Z","date":"2025-12-05","time":"01:01:54"},{"task":"memory_phase","broad_category":"M","image_png":"M_Slate_10.png","image_id":314,"category_name":"Slate","category":20,"distinct_rating":1.94,"distinct_type":"Bottom","rt":null,"stimulus":"Stimuli_Rocks480/M_Slate_10.png","response":null,"trial_type":"image-keyboard-response","trial_index":71,"plugin_version":"2.1.0","time_elapsed":4614773,"subject_id":"88650","group":"Group2","full_date":"2025-12-05T01:01:54.629Z","date":"2025-12-05","time":"01:01:54"},{"rt":null,"stimulus":"<p style=\"font-size: 50px; margin: 0; text-align: center;\">+</p>","response":null,"trial_type":"html-keyboard-response","trial_index":72,"plugin_version":"2.1.0","time_elapsed":4615775,"subject_id":"88650","group":"Group2","full_date":"2025-12-05T01:01:54.629Z","date":"2025-12-05","time":"01:01:54"},{"task":"memory_phase","broad_category":"S","image_png":"S_Shale_02.png","image_id":466,"category_name":"Shale","category":30,"distinct_rating":2.9,"distinct_type":"Bottom","rt":null,"stimulus":"Stimuli_Rocks480/S_Shale_02.png","response":null,"trial_type":"image-keyboard-response","trial_index":73,"plugin_version":"2.1.0","time_elapsed":4618277,"subject_id":"88650","group":"Group2","full_date":"2025-12-05T01:01:54.629Z","date":"2025-12-05","time":"01:01:54"},{"rt":null,"stimulus":"<p style=\"font-size: 50px; margin: 0; text-align: center;\">+</p>","response":null,"trial_type":"html-keyboard-response","trial_index":74,"plugin_version":"2.1.0","time_elapsed":4619285,"subject_id":"88650","group":"Group2","full_date":"2025-12-05T01:01:54.629Z","date":"2025-12-05","time":"01:01:54"},{"task":"memory_phase","broad_category":"S","image_png":"S_Sandstone_04.png","image_id":452,"category_name":"Sandstone","category":29,"distinct_rating":1.8,"distinct_type":"Bottom","rt":null,"stimulus":"Stimuli_Rocks480/S_Sandstone_04.png","response":null,"trial_type":"image-keyboard-response","trial_index":75,"plugin_version":"2.1.0","time_elapsed":4621794,"subject_id":"88650","group":"Group2","full_date":"2025-12-05T01:01:54.629Z","date":"2025-12-05","time":"01:01:54"},{"rt":null,"stimulus":"<p style=\"font-size: 50px; margin: 0; text-align: center;\">+</p>","response":null,"trial_type":"html-keyboard-response","trial_index":76,"plugin_version":"2.1.0","time_elapsed":4622801,"subject_id":"88650","group":"Group2","full_date":"2025-12-05T01:01:54.629Z","date":"2025-12-05","time":"01:01:54"},{"task":"memory_phase","broad_category":"M","image_png":"M_Marble_03.png","image_id":227,"category_name":"Marble","category":15,"distinct_rating":2.67,"distinct_type":"Bottom","rt":null,"stimulus":"Stimuli_Rocks480/M_Marble_03.png","response":null,"trial_type":"image-keyboard-response","trial_index":77,"plugin_version":"2.1.0","time_elapsed":4625312,"subject_id":"88650","group":"Group2","full_date":"2025-12-05T01:01:54.629Z","date":"2025-12-05","time":"01:01:54"},{"rt":null,"stimulus":"<p style=\"font-size: 50px; margin: 0; text-align: center;\">+</p>","response":null,"trial_type":"html-keyboard-response","trial_index":78,"plugin_version":"2.1.0","time_elapsed":4626328,"subject_id":"88650","group":"Group2","full_date":"2025-12-05T01:01:54.629Z","date":"2025-12-05","time":"01:01:54"},{"task":"memory_phase","broad_category":"I","image_png":"I_Pumice_14.png","image_id":142,"category_name":"Pumice","category":9,"distinct_rating":3.22,"distinct_type":"Bottom","rt":null,"stimulus":"Stimuli_Rocks480/I_Pumice_14.png","response":null,"trial_type":"image-keyboard-response","trial_index":79,"plugin_version":"2.1.0","time_elapsed":4628837,"subject_id":"88650","group":"Group2","full_date":"2025-12-05T01:01:54.629Z","date":"2025-12-05","time":"01:01:54"},{"rt":null,"stimulus":"<p style=\"font-size: 50px; margin: 0; text-align: center;\">+</p>","response":null,"trial_type":"html-keyboard-response","trial_index":80,"plugin_version":"2.1.0","time_elapsed":4629851,"subject_id":"88650","group":"Group2","full_date":"2025-12-05T01:01:54.629Z","date":"2025-12-05","time":"01:01:54"},{"task":"memory_phase","broad_category":"I","image_png":"I_Pumice_01.png","image_id":129,"category_name":"Pumice","category":9,"distinct_rating":3.25,"distinct_type":"Bottom","rt":null,"stimulus":"Stimuli_Rocks480/I_Pumice_01.png","response":null,"trial_type":"image-keyboard-response","trial_index":81,"plugin_version":"2.1.0","time_elapsed":4632366,"subject_id":"88650","group":"Group2","full_date":"2025-12-05T01:01:54.629Z","date":"2025-12-05","time":"01:01:54"},{"rt":null,"stimulus":"<p style=\"font-size: 50px; margin: 0; text-align: center;\">+</p>","response":null,"trial_type":"html-keyboard-response","trial_index":82,"plugin_version":"2.1.0","time_elapsed":4633384,"subject_id":"88650","group":"Group2","full_date":"2025-12-05T01:01:54.629Z","date":"2025-12-05","time":"01:01:54"},{"task":"memory_phase","broad_category":"I","image_png":"I_Basalt_08.png","image_id":24,"category_name":"Basalt","category":2,"distinct_rating":2.31,"distinct_type":"Bottom","rt":null,"stimulus":"Stimuli_Rocks480/I_Basalt_08.png","response":null,"trial_type":"image-keyboard-response","trial_index":83,"plugin_version":"2.1.0","time_elapsed":4635899,"subject_id":"88650","group":"Group2","full_date":"2025-12-05T01:01:54.629Z","date":"2025-12-05","time":"01:01:54"},{"rt":null,"stimulus":"<p style=\"font-size: 50px; margin: 0; text-align: center;\">+</p>","response":null,"trial_type":"html-keyboard-response","trial_index":84,"plugin_version":"2.1.0","time_elapsed":4636918,"subject_id":"88650","group":"Group2","full_date":"2025-12-05T01:01:54.629Z","date":"2025-12-05","time":"01:01:54"},{"task":"memory_phase","broad_category":"S","image_png":"S_Rock Salt_13.png","image_id":445,"category_name":"Rock Salt","category":28,"distinct_rating":7.58,"distinct_type":"Top","rt":null,"stimulus":"Stimuli_Rocks480/S_Rock Salt_13.png","response":null,"trial_type":"image-keyboard-response","trial_index":85,"plugin_version":"2.1.0","time_elapsed":4639428,"subject_id":"88650","group":"Group2","full_date":"2025-12-05T01:01:54.629Z","date":"2025-12-05","time":"01:01:54"},{"rt":null,"stimulus":"<p style=\"font-size: 50px; margin: 0; text-align: center;\">+</p>","response":null,"trial_type":"html-keyboard-response","trial_index":86,"plugin_version":"2.1.0","time_elapsed":4640445,"subject_id":"88650","group":"Group2","full_date":"2025-12-05T01:01:54.629Z","date":"2025-12-05","time":"01:01:54"},{"task":"memory_phase","broad_category":"I","image_png":"I_Rhyolite_05.png","image_id":149,"category_name":"Rhyolite","category":10,"distinct_rating":3.02,"distinct_type":"Bottom","rt":null,"stimulus":"Stimuli_Rocks480/I_Rhyolite_05.png","response":null,"trial_type":"image-keyboard-response","trial_index":87,"plugin_version":"2.1.0","time_elapsed":4642960,"subject_id":"88650","group":"Group2","full_date":"2025-12-05T01:01:54.629Z","date":"2025-12-05","time":"01:01:54"},{"rt":null,"stimulus":"<p style=\"font-size: 50px; margin: 0; text-align: center;\">+</p>","response":null,"trial_type":"html-keyboard-response","trial_index":88,"plugin_version":"2.1.0","time_elapsed":4643973,"subject_id":"88650","group":"Group2","full_date":"2025-12-05T01:01:54.629Z","date":"2025-12-05","time":"01:01:54"},{"task":"memory_phase","broad_category":"M","image_png":"M_Gneiss_14.png","image_id":206,"category_name":"Gneiss","category":13,"distinct_rating":3.41,"distinct_type":"Bottom","rt":null,"stimulus":"Stimuli_Rocks480/M_Gneiss_14.png","response":null,"trial_type":"image-keyboard-response","trial_index":89,"plugin_version":"2.1.0","time_elapsed":4646483,"subject_id":"88650","group":"Group2","full_date":"2025-12-05T01:01:54.629Z","date":"2025-12-05","time":"01:01:54"},{"rt":null,"stimulus":"<p style=\"font-size: 50px; margin: 0; text-align: center;\">+</p>","response":null,"trial_type":"html-keyboard-response","trial_index":90,"plugin_version":"2.1.0","time_elapsed":4647497,"subject_id":"88650","group":"Group2","full_date":"2025-12-05T01:01:54.629Z","date":"2025-12-05","time":"01:01:54"},{"task":"memory_phase","broad_category":"S","image_png":"S_Rock Salt_15.png","image_id":447,"category_name":"Rock Salt","category":28,"distinct_rating":7.79,"distinct_type":"Top","rt":null,"stimulus":"Stimuli_Rocks480/S_Rock Salt_15.png","response":null,"trial_type":"image-keyboard-response","trial_index":91,"plugin_version":"2.1.0","time_elapsed":4650010,"subject_id":"88650","group":"Group2","full_date":"2025-12-05T01:01:54.629Z","date":"2025-12-05","time":"01:01:54"},{"rt":null,"stimulus":"<p style=\"font-size: 50px; margin: 0; text-align: center;\">+</p>","response":null,"trial_type":"html-keyboard-response","trial_index":92,"plugin_version":"2.1.0","time_elapsed":4651027,"subject_id":"88650","group":"Group2","full_date":"2025-12-05T01:01:54.629Z","date":"2025-12-05","time":"01:01:54"},{"task":"memory_phase","broad_category":"I","image_png":"I_Andesite_04.png","image_id":4,"category_name":"Andesite","category":1,"distinct_rating":3.18,"distinct_type":"Bottom","rt":null,"stimulus":"Stimuli_Rocks480/I_Andesite_04.png","response":null,"trial_type":"image-keyboard-response","trial_index":93,"plugin_version":"2.1.0","time_elapsed":4653545,"subject_id":"88650","group":"Group2","full_date":"2025-12-05T01:01:54.629Z","date":"2025-12-05","time":"01:01:54"},{"rt":null,"stimulus":"<p style=\"font-size: 50px; margin: 0; text-align: center;\">+</p>","response":null,"trial_type":"html-keyboard-response","trial_index":94,"plugin_version":"2.1.0","time_elapsed":4654551,"subject_id":"88650","group":"Group2","full_date":"2025-12-05T01:01:54.629Z","date":"2025-12-05","time":"01:01:54"},{"task":"memory_phase","broad_category":"I","image_png":"I_Pegmatite_03.png","image_id":99,"category_name":"Pegmatite","category":7,"distinct_rating":7.24,"distinct_type":"Top","rt":null,"stimulus":"Stimuli_Rocks480/I_Pegmatite_03.png","response":null,"trial_type":"image-keyboard-response","trial_index":95,"plugin_version":"2.1.0","time_elapsed":4657062,"subject_id":"88650","group":"Group2","full_date":"2025-12-05T01:01:54.629Z","date":"2025-12-05","time":"01:01:54"},{"rt":null,"stimulus":"<p style=\"font-size: 50px; margin: 0; text-align: center;\">+</p>","response":null,"trial_type":"html-keyboard-response","trial_index":96,"plugin_version":"2.1.0","time_elapsed":4658076,"subject_id":"88650","group":"Group2","full_date":"2025-12-05T01:01:54.629Z","date":"2025-12-05","time":"01:01:54"},{"task":"memory_phase","broad_category":"S","image_png":"S_Conglomerate_14.png","image_id":382,"category_name":"Conglomerate","category":24,"distinct_rating":6.86,"distinct_type":"Top","rt":null,"stimulus":"Stimuli_Rocks480/S_Conglomerate_14.png","response":null,"trial_type":"image-keyboard-response","trial_index":97,"plugin_version":"2.1.0","time_elapsed":4660593,"subject_id":"88650","group":"Group2","full_date":"2025-12-05T01:01:54.629Z","date":"2025-12-05","time":"01:01:54"},{"rt":null,"stimulus":"<p style=\"font-size: 50px; margin: 0; text-align: center;\">+</p>","response":null,"trial_type":"html-keyboard-response","trial_index":98,"plugin_version":"2.1.0","time_elapsed":4661606,"subject_id":"88650","group":"Group2","full_date":"2025-12-05T01:01:54.629Z","date":"2025-12-05","time":"01:01:54"},{"task":"memory_phase","broad_category":"M","image_png":"M_Slate_04.png","image_id":308,"category_name":"Slate","category":20,"distinct_rating":2.2,"distinct_type":"Bottom","rt":null,"stimulus":"Stimuli_Rocks480/M_Slate_04.png","response":null,"trial_type":"image-keyboard-response","trial_index":99,"plugin_version":"2.1.0","time_elapsed":4664122,"subject_id":"88650","group":"Group2","full_date":"2025-12-05T01:01:54.629Z","date":"2025-12-05","time":"01:01:54"},{"rt":null,"stimulus":"<p style=\"font-size: 50px; margin: 0; text-align: center;\">+</p>","response":null,"trial_type":"html-keyboard-response","trial_index":100,"plugin_version":"2.1.0","time_elapsed":4665138,"subject_id":"88650","group":"Group2","full_date":"2025-12-05T01:01:54.629Z","date":"2025-12-05","time":"01:01:54"},{"task":"memory_phase","broad_category":"I","image_png":"I_Gabbro_02.png","image_id":50,"category_name":"Gabbro","category":4,"distinct_rating":2.73,"distinct_type":"Bottom","rt":null,"stimulus":"Stimuli_Rocks480/I_Gabbro_02.png","response":null,"trial_type":"image-keyboard-response","trial_index":101,"plugin_version":"2.1.0","time_elapsed":4667651,"subject_id":"88650","group":"Group2","full_date":"2025-12-05T01:01:54.629Z","date":"2025-12-05","time":"01:01:54"},{"rt":null,"stimulus":"<p style=\"font-size: 50px; margin: 0; text-align: center;\">+</p>","response":null,"trial_type":"html-keyboard-response","trial_index":102,"plugin_version":"2.1.0","time_elapsed":4668664,"subject_id":"88650","group":"Group2","full_date":"2025-12-05T01:01:54.629Z","date":"2025-12-05","time":"01:01:54"},{"task":"memory_phase","broad_category":"M","image_png":"M_Marble_02.png","image_id":226,"category_name":"Marble","category":15,"distinct_rating":3.2,"distinct_type":"Bottom","rt":null,"stimulus":"Stimuli_Rocks480/M_Marble_02.png","response":null,"trial_type":"image-keyboard-response","trial_index":103,"plugin_version":"2.1.0","time_elapsed":4671180,"subject_id":"88650","group":"Group2","full_date":"2025-12-05T01:01:54.629Z","date":"2025-12-05","time":"01:01:54"},{"rt":null,"stimulus":"<p style=\"font-size: 50px; margin: 0; text-align: center;\">+</p>","response":null,"trial_type":"html-keyboard-response","trial_index":104,"plugin_version":"2.1.0","time_elapsed":4672188,"subject_id":"88650","group":"Group2","full_date":"2025-12-05T01:01:54.629Z","date":"2025-12-05","time":"01:01:54"},{"task":"memory_phase","broad_category":"I","image_png":"I_Peridotite_13.png","image_id":125,"category_name":"Peridotite","category":8,"distinct_rating":7.28,"distinct_type":"Top","rt":null,"stimulus":"Stimuli_Rocks480/I_Peridotite_13.png","response":null,"trial_type":"image-keyboard-response","trial_index":105,"plugin_version":"2.1.0","time_elapsed":4674703,"subject_id":"88650","group":"Group2","full_date":"2025-12-05T01:01:54.629Z","date":"2025-12-05","time":"01:01:54"},{"rt":5444,"stimulus":"<p style=\"max-width: 760px; margin: auto; font-size: 35px; line-height: 1.5;\">You have completed 1 study phase. Now, we'll show you all the images again 2 more times.<br><br>Press SPACE to continue</p>","response":" ","trial_type":"html-keyboard-response","trial_index":106,"plugin_version":"2.1.0","time_elapsed":4680148,"subject_id":"88650","group":"Group2","full_date":"2025-12-05T01:01:54.629Z","date":"2025-12-05","time":"01:01:54"},{"rt":null,"stimulus":"<p style=\"font-size: 50px; margin: 0; text-align: center;\">+</p>","response":null,"trial_type":"html-keyboard-response","trial_index":107,"plugin_version":"2.1.0","time_elapsed":4681151,"subject_id":"88650","group":"Group2","full_date":"2025-12-05T01:01:54.629Z","date":"2025-12-05","time":"01:01:54"},{"task":"memory_phase","broad_category":"M","image_png":"M_Phyllite_05.png","image_id":261,"category_name":"Phyllite","category":17,"distinct_rating":2.14,"distinct_type":"Bottom","rt":null,"stimulus":"Stimuli_Rocks480/M_Phyllite_05.png","response":null,"trial_type":"image-keyboard-response","trial_index":108,"plugin_version":"2.1.0","time_elapsed":4683658,"subject_id":"88650","group":"Group2","full_date":"2025-12-05T01:01:54.629Z","date":"2025-12-05","time":"01:01:54"},{"rt":null,"stimulus":"<p style=\"font-size: 50px; margin: 0; text-align: center;\">+</p>","response":null,"trial_type":"html-keyboard-response","trial_index":109,"plugin_version":"2.1.0","time_elapsed":4684671,"subject_id":"88650","group":"Group2","full_date":"2025-12-05T01:01:54.629Z","date":"2025-12-05","time":"01:01:54"},{"task":"memory_phase","broad_category":"S","image_png":"S_Dolomite_16.png","image_id":400,"category_name":"Dolomite","category":25,"distinct_rating":1.71,"distinct_type":"Bottom","rt":null,"stimulus":"Stimuli_Rocks480/S_Dolomite_16.png","response":null,"trial_type":"image-keyboard-response","trial_index":110,"plugin_version":"2.1.0","time_elapsed":4687174,"subject_id":"88650","group":"Group2","full_date":"2025-12-05T01:01:54.629Z","date":"2025-12-05","time":"01:01:54"},{"rt":null,"stimulus":"<p style=\"font-size: 50px; margin: 0; text-align: center;\">+</p>","response":null,"trial_type":"html-keyboard-response","trial_index":111,"plugin_version":"2.1.0","time_elapsed":4688186,"subject_id":"88650","group":"Group2","full_date":"2025-12-05T01:01:54.629Z","date":"2025-12-05","time":"01:01:54"},{"task":"memory_phase","broad_category":"M","image_png":"M_Quartzite_15.png","image_id":287,"category_name":"Quartzite","category":18,"distinct_rating":2.19,"distinct_type":"Bottom","rt":null,"stimulus":"Stimuli_Rocks480/M_Quartzite_15.png","response":null,"trial_type":"image-keyboard-response","trial_index":112,"plugin_version":"2.1.0","time_elapsed":4690696,"subject_id":"88650","group":"Group2","full_date":"2025-12-05T01:01:54.629Z","date":"2025-12-05","time":"01:01:54"},{"rt":null,"stimulus":"<p style=\"font-size: 50px; margin: 0; text-align: center;\">+</p>","response":null,"trial_type":"html-keyboard-response","trial_index":113,"plugin_version":"2.1.0","time_elapsed":4691712,"subject_id":"88650","group":"Group2","full_date":"2025-12-05T01:01:54.629Z","date":"2025-12-05","time":"01:01:54"},{"task":"memory_phase","broad_category":"I","image_png":"I_Basalt_10.png","image_id":26,"category_name":"Basalt","category":2,"distinct_rating":2.76,"distinct_type":"Bottom","rt":null,"stimulus":"Stimuli_Rocks480/I_Basalt_10.png","response":null,"trial_type":"image-keyboard-response","trial_index":114,"plugin_version":"2.1.0","time_elapsed":4694216,"subject_id":"88650","group":"Group2","full_date":"2025-12-05T01:01:54.629Z","date":"2025-12-05","time":"01:01:54"},{"rt":null,"stimulus":"<p style=\"font-size: 50px; margin: 0; text-align: center;\">+</p>","response":null,"trial_type":"html-keyboard-response","trial_index":115,"plugin_version":"2.1.0","time_elapsed":4695218,"subject_id":"88650","group":"Group2","full_date":"2025-12-05T01:01:54.629Z","date":"2025-12-05","time":"01:01:54"},{"task":"memory_phase","broad_category":"I","image_png":"I_Rhyolite_08.png","image_id":152,"category_name":"Rhyolite","category":10,"distinct_rating":1.38,"distinct_type":"Bottom","rt":null,"stimulus":"Stimuli_Rocks480/I_Rhyolite_08.png","response":null,"trial_type":"image-keyboard-response","trial_index":116,"plugin_version":"2.1.0","time_elapsed":4697726,"subject_id":"88650","group":"Group2","full_date":"2025-12-05T01:01:54.629Z","date":"2025-12-05","time":"01:01:54"},{"rt":null,"stimulus":"<p style=\"font-size: 50px; margin: 0; text-align: center;\">+</p>","response":null,"trial_type":"html-keyboard-response","trial_index":117,"plugin_version":"2.1.0","time_elapsed":4698737,"subject_id":"88650","group":"Group2","full_date":"2025-12-05T01:01:54.629Z","date":"2025-12-05","time":"01:01:54"},{"task":"memory_phase","broad_category":"M","image_png":"M_Slate_14.png","image_id":318,"category_name":"Slate","category":20,"distinct_rating":2.58,"distinct_type":"Bottom","rt":null,"stimulus":"Stimuli_Rocks480/M_Slate_14.png","response":null,"trial_type":"image-keyboard-response","trial_index":118,"plugin_version":"2.1.0","time_elapsed":4701247,"subject_id":"88650","group":"Group2","full_date":"2025-12-05T01:01:54.629Z","date":"2025-12-05","time":"01:01:54"},{"rt":null,"stimulus":"<p style=\"font-size: 50px; margin: 0; text-align: center;\">+</p>","response":null,"trial_type":"html-keyboard-response","trial_index":119,"plugin_version":"2.1.0","time_elapsed":4702252,"subject_id":"88650","group":"Group2","full_date":"2025-12-05T01:01:54.629Z","date":"2025-12-05","time":"01:01:54"},{"task":"memory_phase","broad_category":"I","image_png":"I_Gabbro_14.png","image_id":62,"category_name":"Gabbro","category":4,"distinct_rating":2.95,"distinct_type":"Bottom","rt":null,"stimulus":"Stimuli_Rocks480/I_Gabbro_14.png","response":null,"trial_type":"image-keyboard-response","trial_index":120,"plugin_version":"2.1.0","time_elapsed":4704761,"subject_id":"88650","group":"Group2","full_date":"2025-12-05T01:01:54.629Z","date":"2025-12-05","time":"01:01:54"},{"rt":null,"stimulus":"<p style=\"font-size: 50px; margin: 0; text-align: center;\">+</p>","response":null,"trial_type":"html-keyboard-response","trial_index":121,"plugin_version":"2.1.0","time_elapsed":4705773,"subject_id":"88650","group":"Group2","full_date":"2025-12-05T01:01:54.629Z","date":"2025-12-05","time":"01:01:54"},{"task":"memory_phase","broad_category":"S","image_png":"S_Shale_03.png","image_id":467,"category_name":"Shale","category":30,"distinct_rating":1.95,"distinct_type":"Bottom","rt":null,"stimulus":"Stimuli_Rocks480/S_Shale_03.png","response":null,"trial_type":"image-keyboard-response","trial_index":122,"plugin_version":"2.1.0","time_elapsed":4708280,"subject_id":"88650","group":"Group2","full_date":"2025-12-05T01:01:54.629Z","date":"2025-12-05","time":"01:01:54"},{"rt":null,"stimulus":"<p style=\"font-size: 50px; margin: 0; text-align: center;\">+</p>","response":null,"trial_type":"html-keyboard-response","trial_index":123,"plugin_version":"2.1.0","time_elapsed":4709285,"subject_id":"88650","group":"Group2","full_date":"2025-12-05T01:01:54.629Z","date":"2025-12-05","time":"01:01:54"},{"task":"memory_phase","broad_category":"S","image_png":"S_Shale_07.png","image_id":471,"category_name":"Shale","category":30,"distinct_rating":2.73,"distinct_type":"Bottom","rt":null,"stimulus":"Stimuli_Rocks480/S_Shale_07.png","response":null,"trial_type":"image-keyboard-response","trial_index":124,"plugin_version":"2.1.0","time_elapsed":4711794,"subject_id":"88650","group":"Group2","full_date":"2025-12-05T01:01:54.629Z","date":"2025-12-05","time":"01:01:54"},{"rt":null,"stimulus":"<p style=\"font-size: 50px; margin: 0; text-align: center;\">+</p>","response":null,"trial_type":"html-keyboard-response","trial_index":125,"plugin_version":"2.1.0","time_elapsed":4712811,"subject_id":"88650","group":"Group2","full_date":"2025-12-05T01:01:54.629Z","date":"2025-12-05","time":"01:01:54"},{"task":"memory_phase","broad_category":"S","image_png":"S_Dolomite_07.png","image_id":391,"category_name":"Dolomite","category":25,"distinct_rating":1.73,"distinct_type":"Bottom","rt":null,"stimulus":"Stimuli_Rocks480/S_Dolomite_07.png","response":null,"trial_type":"image-keyboard-response","trial_index":126,"plugin_version":"2.1.0","time_elapsed":4715320,"subject_id":"88650","group":"Group2","full_date":"2025-12-05T01:01:54.629Z","date":"2025-12-05","time":"01:01:54"},{"rt":null,"stimulus":"<p style=\"font-size: 50px; margin: 0; text-align: center;\">+</p>","response":null,"trial_type":"html-keyboard-response","trial_index":127,"plugin_version":"2.1.0","time_elapsed":4716336,"subject_id":"88650","group":"Group2","full_date":"2025-12-05T01:01:54.629Z","date":"2025-12-05","time":"01:01:54"},{"task":"memory_phase","broad_category":"I","image_png":"I_Diorite_10.png","image_id":42,"category_name":"Diorite","category":3,"distinct_rating":2.84,"distinct_type":"Bottom","rt":null,"stimulus":"Stimuli_Rocks480/I_Diorite_10.png","response":null,"trial_type":"image-keyboard-response","trial_index":128,"plugin_version":"2.1.0","time_elapsed":4718841,"subject_id":"88650","group":"Group2","full_date":"2025-12-05T01:01:54.629Z","date":"2025-12-05","time":"01:01:54"},{"rt":null,"stimulus":"<p style=\"font-size: 50px; margin: 0; text-align: center;\">+</p>","response":null,"trial_type":"html-keyboard-response","trial_index":129,"plugin_version":"2.1.0","time_elapsed":4719843,"subject_id":"88650","group":"Group2","full_date":"2025-12-05T01:01:54.629Z","date":"2025-12-05","time":"01:01:54"},{"task":"memory_phase","broad_category":"S","image_png":"S_Conglomerate_14.png","image_id":382,"category_name":"Conglomerate","category":24,"distinct_rating":6.86,"distinct_type":"Top","rt":null,"stimulus":"Stimuli_Rocks480/S_Conglomerate_14.png","response":null,"trial_type":"image-keyboard-response","trial_index":130,"plugin_version":"2.1.0","time_elapsed":4722361,"subject_id":"88650","group":"Group2","full_date":"2025-12-05T01:01:54.629Z","date":"2025-12-05","time":"01:01:54"},{"rt":null,"stimulus":"<p style=\"font-size: 50px; margin: 0; text-align: center;\">+</p>","response":null,"trial_type":"html-keyboard-response","trial_index":131,"plugin_version":"2.1.0","time_elapsed":4723370,"subject_id":"88650","group":"Group2","full_date":"2025-12-05T01:01:54.629Z","date":"2025-12-05","time":"01:01:54"},{"task":"memory_phase","broad_category":"S","image_png":"S_Sandstone_08.png","image_id":456,"category_name":"Sandstone","category":29,"distinct_rating":1.5,"distinct_type":"Bottom","rt":null,"stimulus":"Stimuli_Rocks480/S_Sandstone_08.png","response":null,"trial_type":"image-keyboard-response","trial_index":132,"plugin_version":"2.1.0","time_elapsed":4725875,"subject_id":"88650","group":"Group2","full_date":"2025-12-05T01:01:54.629Z","date":"2025-12-05","time":"01:01:54"},{"rt":null,"stimulus":"<p style=\"font-size: 50px; margin: 0; text-align: center;\">+</p>","response":null,"trial_type":"html-keyboard-response","trial_index":133,"plugin_version":"2.1.0","time_elapsed":4726890,"subject_id":"88650","group":"Group2","full_date":"2025-12-05T01:01:54.629Z","date":"2025-12-05","time":"01:01:54"},{"task":"memory_phase","broad_category":"M","image_png":"M_Gneiss_10.png","image_id":202,"category_name":"Gneiss","category":13,"distinct_rating":3.09,"distinct_type":"Bottom","rt":null,"stimulus":"Stimuli_Rocks480/M_Gneiss_10.png","response":null,"trial_type":"image-keyboard-response","trial_index":134,"plugin_version":"2.1.0","time_elapsed":4729395,"subject_id":"88650","group":"Group2","full_date":"2025-12-05T01:01:54.629Z","date":"2025-12-05","time":"01:01:54"},{"rt":null,"stimulus":"<p style=\"font-size: 50px; margin: 0; text-align: center;\">+</p>","response":null,"trial_type":"html-keyboard-response","trial_index":135,"plugin_version":"2.1.0","time_elapsed":4730408,"subject_id":"88650","group":"Group2","full_date":"2025-12-05T01:01:54.629Z","date":"2025-12-05","time":"01:01:54"},{"task":"memory_phase","broad_category":"I","image_png":"I_Gabbro_02.png","image_id":50,"category_name":"Gabbro","category":4,"distinct_rating":2.73,"distinct_type":"Bottom","rt":null,"stimulus":"Stimuli_Rocks480/I_Gabbro_02.png","response":null,"trial_type":"image-keyboard-response","trial_index":136,"plugin_version":"2.1.0","time_elapsed":4732913,"subject_id":"88650","group":"Group2","full_date":"2025-12-05T01:01:54.629Z","date":"2025-12-05","time":"01:01:54"},{"rt":null,"stimulus":"<p style=\"font-size: 50px; margin: 0; text-align: center;\">+</p>","response":null,"trial_type":"html-keyboard-response","trial_index":137,"plugin_version":"2.1.0","time_elapsed":4733918,"subject_id":"88650","group":"Group2","full_date":"2025-12-05T01:01:54.629Z","date":"2025-12-05","time":"01:01:54"},{"task":"memory_phase","broad_category":"I","image_png":"I_Rhyolite_05.png","image_id":149,"category_name":"Rhyolite","category":10,"distinct_rating":3.02,"distinct_type":"Bottom","rt":null,"stimulus":"Stimuli_Rocks480/I_Rhyolite_05.png","response":null,"trial_type":"image-keyboard-response","trial_index":138,"plugin_version":"2.1.0","time_elapsed":4736427,"subject_id":"88650","group":"Group2","full_date":"2025-12-05T01:01:54.629Z","date":"2025-12-05","time":"01:01:54"},{"rt":null,"stimulus":"<p style=\"font-size: 50px; margin: 0; text-align: center;\">+</p>","response":null,"trial_type":"html-keyboard-response","trial_index":139,"plugin_version":"2.1.0","time_elapsed":4737432,"subject_id":"88650","group":"Group2","full_date":"2025-12-05T01:01:54.629Z","date":"2025-12-05","time":"01:01:54"},{"task":"memory_phase","broad_category":"M","image_png":"M_Gneiss_15.png","image_id":207,"category_name":"Gneiss","category":13,"distinct_rating":3.11,"distinct_type":"Bottom","rt":null,"stimulus":"Stimuli_Rocks480/M_Gneiss_15.png","response":null,"trial_type":"image-keyboard-response","trial_index":140,"plugin_version":"2.1.0","time_elapsed":4739949,"subject_id":"88650","group":"Group2","full_date":"2025-12-05T01:01:54.629Z","date":"2025-12-05","time":"01:01:54"},{"rt":null,"stimulus":"<p style=\"font-size: 50px; margin: 0; text-align: center;\">+</p>","response":null,"trial_type":"html-keyboard-response","trial_index":141,"plugin_version":"2.1.0","time_elapsed":4740958,"subject_id":"88650","group":"Group2","full_date":"2025-12-05T01:01:54.629Z","date":"2025-12-05","time":"01:01:54"},{"task":"memory_phase","broad_category":"S","image_png":"S_Dolomite_01.png","image_id":385,"category_name":"Dolomite","category":25,"distinct_rating":1.43,"distinct_type":"Bottom","rt":null,"stimulus":"Stimuli_Rocks480/S_Dolomite_01.png","response":null,"trial_type":"image-keyboard-response","trial_index":142,"plugin_version":"2.1.0","time_elapsed":4743468,"subject_id":"88650","group":"Group2","full_date":"2025-12-05T01:01:54.629Z","date":"2025-12-05","time":"01:01:54"},{"rt":null,"stimulus":"<p style=\"font-size: 50px; margin: 0; text-align: center;\">+</p>","response":null,"trial_type":"html-keyboard-response","trial_index":143,"plugin_version":"2.1.0","time_elapsed":4744477,"subject_id":"88650","group":"Group2","full_date":"2025-12-05T01:01:54.629Z","date":"2025-12-05","time":"01:01:54"},{"task":"memory_phase","broad_category":"I","image_png":"I_Basalt_08.png","image_id":24,"category_name":"Basalt","category":2,"distinct_rating":2.31,"distinct_type":"Bottom","rt":null,"stimulus":"Stimuli_Rocks480/I_Basalt_08.png","response":null,"trial_type":"image-keyboard-response","trial_index":144,"plugin_version":"2.1.0","time_elapsed":4746990,"subject_id":"88650","group":"Group2","full_date":"2025-12-05T01:01:54.629Z","date":"2025-12-05","time":"01:01:54"},{"rt":null,"stimulus":"<p style=\"font-size: 50px; margin: 0; text-align: center;\">+</p>","response":null,"trial_type":"html-keyboard-response","trial_index":145,"plugin_version":"2.1.0","time_elapsed":4748003,"subject_id":"88650","group":"Group2","full_date":"2025-12-05T01:01:54.629Z","date":"2025-12-05","time":"01:01:54"},{"task":"memory_phase","broad_category":"S","image_png":"S_Shale_02.png","image_id":466,"category_name":"Shale","category":30,"distinct_rating":2.9,"distinct_type":"Bottom","rt":null,"stimulus":"Stimuli_Rocks480/S_Shale_02.png","response":null,"trial_type":"image-keyboard-response","trial_index":146,"plugin_version":"2.1.0","time_elapsed":4750506,"subject_id":"88650","group":"Group2","full_date":"2025-12-05T01:01:54.629Z","date":"2025-12-05","time":"01:01:54"},{"rt":null,"stimulus":"<p style=\"font-size: 50px; margin: 0; text-align: center;\">+</p>","response":null,"trial_type":"html-keyboard-response","trial_index":147,"plugin_version":"2.1.0","time_elapsed":4751511,"subject_id":"88650","group":"Group2","full_date":"2025-12-05T01:01:54.629Z","date":"2025-12-05","time":"01:01:54"},{"task":"memory_phase","broad_category":"S","image_png":"S_Rock Salt_13.png","image_id":445,"category_name":"Rock Salt","category":28,"distinct_rating":7.58,"distinct_type":"Top","rt":null,"stimulus":"Stimuli_Rocks480/S_Rock Salt_13.png","response":null,"trial_type":"image-keyboard-response","trial_index":148,"plugin_version":"2.1.0","time_elapsed":4754015,"subject_id":"88650","group":"Group2","full_date":"2025-12-05T01:01:54.629Z","date":"2025-12-05","time":"01:01:54"},{"rt":null,"stimulus":"<p style=\"font-size: 50px; margin: 0; text-align: center;\">+</p>","response":null,"trial_type":"html-keyboard-response","trial_index":149,"plugin_version":"2.1.0","time_elapsed":4755023,"subject_id":"88650","group":"Group2","full_date":"2025-12-05T01:01:54.629Z","date":"2025-12-05","time":"01:01:54"},{"task":"memory_phase","broad_category":"M","image_png":"M_Quartzite_07.png","image_id":279,"category_name":"Quartzite","category":18,"distinct_rating":1.97,"distinct_type":"Bottom","rt":null,"stimulus":"Stimuli_Rocks480/M_Quartzite_07.png","response":null,"trial_type":"image-keyboard-response","trial_index":150,"plugin_version":"2.1.0","time_elapsed":4757530,"subject_id":"88650","group":"Group2","full_date":"2025-12-05T01:01:54.629Z","date":"2025-12-05","time":"01:01:54"},{"rt":null,"stimulus":"<p style=\"font-size: 50px; margin: 0; text-align: center;\">+</p>","response":null,"trial_type":"html-keyboard-response","trial_index":151,"plugin_version":"2.1.0","time_elapsed":4758547,"subject_id":"88650","group":"Group2","full_date":"2025-12-05T01:01:54.629Z","date":"2025-12-05","time":"01:01:54"},{"task":"memory_phase","broad_category":"I","image_png":"I_Basalt_13.png","image_id":29,"category_name":"Basalt","category":2,"distinct_rating":2.68,"distinct_type":"Bottom","rt":null,"stimulus":"Stimuli_Rocks480/I_Basalt_13.png","response":null,"trial_type":"image-keyboard-response","trial_index":152,"plugin_version":"2.1.0","time_elapsed":4761053,"subject_id":"88650","group":"Group2","full_date":"2025-12-05T01:01:54.629Z","date":"2025-12-05","time":"01:01:54"},{"rt":null,"stimulus":"<p style=\"font-size: 50px; margin: 0; text-align: center;\">+</p>","response":null,"trial_type":"html-keyboard-response","trial_index":153,"plugin_version":"2.1.0","time_elapsed":4762071,"subject_id":"88650","group":"Group2","full_date":"2025-12-05T01:01:54.629Z","date":"2025-12-05","time":"01:01:54"},{"task":"memory_phase","broad_category":"I","image_png":"I_Pegmatite_03.png","image_id":99,"category_name":"Pegmatite","category":7,"distinct_rating":7.24,"distinct_type":"Top","rt":null,"stimulus":"Stimuli_Rocks480/I_Pegmatite_03.png","response":null,"trial_type":"image-keyboard-response","trial_index":154,"plugin_version":"2.1.0","time_elapsed":4764583,"subject_id":"88650","group":"Group2","full_date":"2025-12-05T01:01:54.629Z","date":"2025-12-05","time":"01:01:54"},{"rt":null,"stimulus":"<p style=\"font-size: 50px; margin: 0; text-align: center;\">+</p>","response":null,"trial_type":"html-keyboard-response","trial_index":155,"plugin_version":"2.1.0","time_elapsed":4765590,"subject_id":"88650","group":"Group2","full_date":"2025-12-05T01:01:54.629Z","date":"2025-12-05","time":"01:01:54"},{"task":"memory_phase","broad_category":"M","image_png":"M_Gneiss_14.png","image_id":206,"category_name":"Gneiss","category":13,"distinct_rating":3.41,"distinct_type":"Bottom","rt":null,"stimulus":"Stimuli_Rocks480/M_Gneiss_14.png","response":null,"trial_type":"image-keyboard-response","trial_index":156,"plugin_version":"2.1.0","time_elapsed":4768108,"subject_id":"88650","group":"Group2","full_date":"2025-12-05T01:01:54.629Z","date":"2025-12-05","time":"01:01:54"},{"rt":1285,"stimulus":"<p style=\"max-width: 760px; margin: auto; font-size: 35px; line-height: 1.5;\">Press SPACE to continue study phase</p>","response":" ","trial_type":"html-keyboard-response","trial_index":157,"plugin_version":"2.1.0","time_elapsed":4769394,"subject_id":"88650","group":"Group2","full_date":"2025-12-05T01:01:54.629Z","date":"2025-12-05","time":"01:01:54"},{"rt":null,"stimulus":"<p style=\"font-size: 50px; margin: 0; text-align: center;\">+</p>","response":null,"trial_type":"html-keyboard-response","trial_index":158,"plugin_version":"2.1.0","time_elapsed":4770411,"subject_id":"88650","group":"Group2","full_date":"2025-12-05T01:01:54.629Z","date":"2025-12-05","time":"01:01:54"},{"task":"memory_phase","broad_category":"I","image_png":"I_Pumice_14.png","image_id":142,"category_name":"Pumice","category":9,"distinct_rating":3.22,"distinct_type":"Bottom","rt":null,"stimulus":"Stimuli_Rocks480/I_Pumice_14.png","response":null,"trial_type":"image-keyboard-response","trial_index":159,"plugin_version":"2.1.0","time_elapsed":4772924,"subject_id":"88650","group":"Group2","full_date":"2025-12-05T01:01:54.629Z","date":"2025-12-05","time":"01:01:54"},{"rt":null,"stimulus":"<p style=\"font-size: 50px; margin: 0; text-align: center;\">+</p>","response":null,"trial_type":"html-keyboard-response","trial_index":160,"plugin_version":"2.1.0","time_elapsed":4773926,"subject_id":"88650","group":"Group2","full_date":"2025-12-05T01:01:54.629Z","date":"2025-12-05","time":"01:01:54"},{"task":"memory_phase","broad_category":"I","image_png":"I_Gabbro_12.png","image_id":60,"category_name":"Gabbro","category":4,"distinct_rating":2.6,"distinct_type":"Bottom","rt":null,"stimulus":"Stimuli_Rocks480/I_Gabbro_12.png","response":null,"trial_type":"image-keyboard-response","trial_index":161,"plugin_version":"2.1.0","time_elapsed":4776433,"subject_id":"88650","group":"Group2","full_date":"2025-12-05T01:01:54.629Z","date":"2025-12-05","time":"01:01:54"},{"rt":null,"stimulus":"<p style=\"font-size: 50px; margin: 0; text-align: center;\">+</p>","response":null,"trial_type":"html-keyboard-response","trial_index":162,"plugin_version":"2.1.0","time_elapsed":4777435,"subject_id":"88650","group":"Group2","full_date":"2025-12-05T01:01:54.629Z","date":"2025-12-05","time":"01:01:54"},{"task":"memory_phase","broad_category":"I","image_png":"I_Pegmatite_11.png","image_id":107,"category_name":"Pegmatite","category":7,"distinct_rating":7.11,"distinct_type":"Top","rt":null,"stimulus":"Stimuli_Rocks480/I_Pegmatite_11.png","response":null,"trial_type":"image-keyboard-response","trial_index":163,"plugin_version":"2.1.0","time_elapsed":4779947,"subject_id":"88650","group":"Group2","full_date":"2025-12-05T01:01:54.629Z","date":"2025-12-05","time":"01:01:54"},{"rt":null,"stimulus":"<p style=\"font-size: 50px; margin: 0; text-align: center;\">+</p>","response":null,"trial_type":"html-keyboard-response","trial_index":164,"plugin_version":"2.1.0","time_elapsed":4780957,"subject_id":"88650","group":"Group2","full_date":"2025-12-05T01:01:54.629Z","date":"2025-12-05","time":"01:01:54"},{"task":"memory_phase","broad_category":"M","image_png":"M_Marble_03.png","image_id":227,"category_name":"Marble","category":15,"distinct_rating":2.67,"distinct_type":"Bottom","rt":null,"stimulus":"Stimuli_Rocks480/M_Marble_03.png","response":null,"trial_type":"image-keyboard-response","trial_index":165,"plugin_version":"2.1.0","time_elapsed":4783463,"subject_id":"88650","group":"Group2","full_date":"2025-12-05T01:01:54.629Z","date":"2025-12-05","time":"01:01:54"},{"rt":null,"stimulus":"<p style=\"font-size: 50px; margin: 0; text-align: center;\">+</p>","response":null,"trial_type":"html-keyboard-response","trial_index":166,"plugin_version":"2.1.0","time_elapsed":4784482,"subject_id":"88650","group":"Group2","full_date":"2025-12-05T01:01:54.629Z","date":"2025-12-05","time":"01:01:54"},{"task":"memory_phase","broad_category":"S","image_png":"S_Sandstone_04.png","image_id":452,"category_name":"Sandstone","category":29,"distinct_rating":1.8,"distinct_type":"Bottom","rt":null,"stimulus":"Stimuli_Rocks480/S_Sandstone_04.png","response":null,"trial_type":"image-keyboard-response","trial_index":167,"plugin_version":"2.1.0","time_elapsed":4786984,"subject_id":"88650","group":"Group2","full_date":"2025-12-05T01:01:54.629Z","date":"2025-12-05","time":"01:01:54"},{"rt":null,"stimulus":"<p style=\"font-size: 50px; margin: 0; text-align: center;\">+</p>","response":null,"trial_type":"html-keyboard-response","trial_index":168,"plugin_version":"2.1.0","time_elapsed":4787997,"subject_id":"88650","group":"Group2","full_date":"2025-12-05T01:01:54.629Z","date":"2025-12-05","time":"01:01:54"},{"task":"memory_phase","broad_category":"I","image_png":"I_Andesite_04.png","image_id":4,"category_name":"Andesite","category":1,"distinct_rating":3.18,"distinct_type":"Bottom","rt":null,"stimulus":"Stimuli_Rocks480/I_Andesite_04.png","response":null,"trial_type":"image-keyboard-response","trial_index":169,"plugin_version":"2.1.0","time_elapsed":4790508,"subject_id":"88650","group":"Group2","full_date":"2025-12-05T01:01:54.629Z","date":"2025-12-05","time":"01:01:54"},{"rt":null,"stimulus":"<p style=\"font-size: 50px; margin: 0; text-align: center;\">+</p>","response":null,"trial_type":"html-keyboard-response","trial_index":170,"plugin_version":"2.1.0","time_elapsed":4791524,"subject_id":"88650","group":"Group2","full_date":"2025-12-05T01:01:54.629Z","date":"2025-12-05","time":"01:01:54"},{"task":"memory_phase","broad_category":"M","image_png":"M_Phyllite_02.png","image_id":258,"category_name":"Phyllite","category":17,"distinct_rating":2.89,"distinct_type":"Bottom","rt":null,"stimulus":"Stimuli_Rocks480/M_Phyllite_02.png","response":null,"trial_type":"image-keyboard-response","trial_index":171,"plugin_version":"2.1.0","time_elapsed":4794029,"subject_id":"88650","group":"Group2","full_date":"2025-12-05T01:01:54.629Z","date":"2025-12-05","time":"01:01:54"},{"rt":null,"stimulus":"<p style=\"font-size: 50px; margin: 0; text-align: center;\">+</p>","response":null,"trial_type":"html-keyboard-response","trial_index":172,"plugin_version":"2.1.0","time_elapsed":4795044,"subject_id":"88650","group":"Group2","full_date":"2025-12-05T01:01:54.629Z","date":"2025-12-05","time":"01:01:54"},{"task":"memory_phase","broad_category":"I","image_png":"I_Andesite_09.png","image_id":9,"category_name":"Andesite","category":1,"distinct_rating":2.49,"distinct_type":"Bottom","rt":null,"stimulus":"Stimuli_Rocks480/I_Andesite_09.png","response":null,"trial_type":"image-keyboard-response","trial_index":173,"plugin_version":"2.1.0","time_elapsed":4797552,"subject_id":"88650","group":"Group2","full_date":"2025-12-05T01:01:54.629Z","date":"2025-12-05","time":"01:01:54"},{"rt":null,"stimulus":"<p style=\"font-size: 50px; margin: 0; text-align: center;\">+</p>","response":null,"trial_type":"html-keyboard-response","trial_index":174,"plugin_version":"2.1.0","time_elapsed":4798563,"subject_id":"88650","group":"Group2","full_date":"2025-12-05T01:01:54.629Z","date":"2025-12-05","time":"01:01:54"},{"task":"memory_phase","broad_category":"M","image_png":"M_Slate_04.png","image_id":308,"category_name":"Slate","category":20,"distinct_rating":2.2,"distinct_type":"Bottom","rt":null,"stimulus":"Stimuli_Rocks480/M_Slate_04.png","response":null,"trial_type":"image-keyboard-response","trial_index":175,"plugin_version":"2.1.0","time_elapsed":4801076,"subject_id":"88650","group":"Group2","full_date":"2025-12-05T01:01:54.629Z","date":"2025-12-05","time":"01:01:54"},{"rt":null,"stimulus":"<p style=\"font-size: 50px; margin: 0; text-align: center;\">+</p>","response":null,"trial_type":"html-keyboard-response","trial_index":176,"plugin_version":"2.1.0","time_elapsed":4802089,"subject_id":"88650","group":"Group2","full_date":"2025-12-05T01:01:54.629Z","date":"2025-12-05","time":"01:01:54"},{"task":"memory_phase","broad_category":"M","image_png":"M_Quartzite_12.png","image_id":284,"category_name":"Quartzite","category":18,"distinct_rating":1.92,"distinct_type":"Bottom","rt":null,"stimulus":"Stimuli_Rocks480/M_Quartzite_12.png","response":null,"trial_type":"image-keyboard-response","trial_index":177,"plugin_version":"2.1.0","time_elapsed":4804592,"subject_id":"88650","group":"Group2","full_date":"2025-12-05T01:01:54.629Z","date":"2025-12-05","time":"01:01:54"},{"rt":null,"stimulus":"<p style=\"font-size: 50px; margin: 0; text-align: center;\">+</p>","response":null,"trial_type":"html-keyboard-response","trial_index":178,"plugin_version":"2.1.0","time_elapsed":4805602,"subject_id":"88650","group":"Group2","full_date":"2025-12-05T01:01:54.629Z","date":"2025-12-05","time":"01:01:54"},{"task":"memory_phase","broad_category":"I","image_png":"I_Pumice_01.png","image_id":129,"category_name":"Pumice","category":9,"distinct_rating":3.25,"distinct_type":"Bottom","rt":null,"stimulus":"Stimuli_Rocks480/I_Pumice_01.png","response":null,"trial_type":"image-keyboard-response","trial_index":179,"plugin_version":"2.1.0","time_elapsed":4808109,"subject_id":"88650","group":"Group2","full_date":"2025-12-05T01:01:54.629Z","date":"2025-12-05","time":"01:01:54"},{"rt":null,"stimulus":"<p style=\"font-size: 50px; margin: 0; text-align: center;\">+</p>","response":null,"trial_type":"html-keyboard-response","trial_index":180,"plugin_version":"2.1.0","time_elapsed":4809122,"subject_id":"88650","group":"Group2","full_date":"2025-12-05T01:01:54.629Z","date":"2025-12-05","time":"01:01:54"},{"task":"memory_phase","broad_category":"I","image_png":"I_Peridotite_13.png","image_id":125,"category_name":"Peridotite","category":8,"distinct_rating":7.28,"distinct_type":"Top","rt":null,"stimulus":"Stimuli_Rocks480/I_Peridotite_13.png","response":null,"trial_type":"image-keyboard-response","trial_index":181,"plugin_version":"2.1.0","time_elapsed":4811628,"subject_id":"88650","group":"Group2","full_date":"2025-12-05T01:01:54.629Z","date":"2025-12-05","time":"01:01:54"},{"rt":null,"stimulus":"<p style=\"font-size: 50px; margin: 0; text-align: center;\">+</p>","response":null,"trial_type":"html-keyboard-response","trial_index":182,"plugin_version":"2.1.0","time_elapsed":4812630,"subject_id":"88650","group":"Group2","full_date":"2025-12-05T01:01:54.629Z","date":"2025-12-05","time":"01:01:54"},{"task":"memory_phase","broad_category":"S","image_png":"S_Chert_13.png","image_id":365,"category_name":"Chert","category":23,"distinct_rating":6.57,"distinct_type":"Top","rt":null,"stimulus":"Stimuli_Rocks480/S_Chert_13.png","response":null,"trial_type":"image-keyboard-response","trial_index":183,"plugin_version":"2.1.0","time_elapsed":4815137,"subject_id":"88650","group":"Group2","full_date":"2025-12-05T01:01:54.629Z","date":"2025-12-05","time":"01:01:54"},{"rt":null,"stimulus":"<p style=\"font-size: 50px; margin: 0; text-align: center;\">+</p>","response":null,"trial_type":"html-keyboard-response","trial_index":184,"plugin_version":"2.1.0","time_elapsed":4816138,"subject_id":"88650","group":"Group2","full_date":"2025-12-05T01:01:54.629Z","date":"2025-12-05","time":"01:01:54"},{"task":"memory_phase","broad_category":"I","image_png":"I_Rhyolite_10.png","image_id":154,"category_name":"Rhyolite","category":10,"distinct_rating":2.88,"distinct_type":"Bottom","rt":null,"stimulus":"Stimuli_Rocks480/I_Rhyolite_10.png","response":null,"trial_type":"image-keyboard-response","trial_index":185,"plugin_version":"2.1.0","time_elapsed":4818654,"subject_id":"88650","group":"Group2","full_date":"2025-12-05T01:01:54.629Z","date":"2025-12-05","time":"01:01:54"},{"rt":null,"stimulus":"<p style=\"font-size: 50px; margin: 0; text-align: center;\">+</p>","response":null,"trial_type":"html-keyboard-response","trial_index":186,"plugin_version":"2.1.0","time_elapsed":4819664,"subject_id":"88650","group":"Group2","full_date":"2025-12-05T01:01:54.629Z","date":"2025-12-05","time":"01:01:54"},{"task":"memory_phase","broad_category":"M","image_png":"M_Marble_14.png","image_id":238,"category_name":"Marble","category":15,"distinct_rating":3.31,"distinct_type":"Bottom","rt":null,"stimulus":"Stimuli_Rocks480/M_Marble_14.png","response":null,"trial_type":"image-keyboard-response","trial_index":187,"plugin_version":"2.1.0","time_elapsed":4822180,"subject_id":"88650","group":"Group2","full_date":"2025-12-05T01:01:54.629Z","date":"2025-12-05","time":"01:01:54"},{"rt":null,"stimulus":"<p style=\"font-size: 50px; margin: 0; text-align: center;\">+</p>","response":null,"trial_type":"html-keyboard-response","trial_index":188,"plugin_version":"2.1.0","time_elapsed":4823188,"subject_id":"88650","group":"Group2","full_date":"2025-12-05T01:01:54.629Z","date":"2025-12-05","time":"01:01:54"},{"task":"memory_phase","broad_category":"I","image_png":"I_Andesite_03.png","image_id":3,"category_name":"Andesite","category":1,"distinct_rating":3.17,"distinct_type":"Bottom","rt":null,"stimulus":"Stimuli_Rocks480/I_Andesite_03.png","response":null,"trial_type":"image-keyboard-response","trial_index":189,"plugin_version":"2.1.0","time_elapsed":4825693,"subject_id":"88650","group":"Group2","full_date":"2025-12-05T01:01:54.629Z","date":"2025-12-05","time":"01:01:54"},{"rt":null,"stimulus":"<p style=\"font-size: 50px; margin: 0; text-align: center;\">+</p>","response":null,"trial_type":"html-keyboard-response","trial_index":190,"plugin_version":"2.1.0","time_elapsed":4826697,"subject_id":"88650","group":"Group2","full_date":"2025-12-05T01:01:54.629Z","date":"2025-12-05","time":"01:01:54"},{"task":"memory_phase","broad_category":"M","image_png":"M_Marble_02.png","image_id":226,"category_name":"Marble","category":15,"distinct_rating":3.2,"distinct_type":"Bottom","rt":null,"stimulus":"Stimuli_Rocks480/M_Marble_02.png","response":null,"trial_type":"image-keyboard-response","trial_index":191,"plugin_version":"2.1.0","time_elapsed":4829198,"subject_id":"88650","group":"Group2","full_date":"2025-12-05T01:01:54.629Z","date":"2025-12-05","time":"01:01:54"},{"rt":null,"stimulus":"<p style=\"font-size: 50px; margin: 0; text-align: center;\">+</p>","response":null,"trial_type":"html-keyboard-response","trial_index":192,"plugin_version":"2.1.0","time_elapsed":4830212,"subject_id":"88650","group":"Group2","full_date":"2025-12-05T01:01:54.629Z","date":"2025-12-05","time":"01:01:54"},{"task":"memory_phase","broad_category":"M","image_png":"M_Slate_10.png","image_id":314,"category_name":"Slate","category":20,"distinct_rating":1.94,"distinct_type":"Bottom","rt":null,"stimulus":"Stimuli_Rocks480/M_Slate_10.png","response":null,"trial_type":"image-keyboard-response","trial_index":193,"plugin_version":"2.1.0","time_elapsed":4832715,"subject_id":"88650","group":"Group2","full_date":"2025-12-05T01:01:54.629Z","date":"2025-12-05","time":"01:01:54"},{"rt":null,"stimulus":"<p style=\"font-size: 50px; margin: 0; text-align: center;\">+</p>","response":null,"trial_type":"html-keyboard-response","trial_index":194,"plugin_version":"2.1.0","time_elapsed":4833731,"subject_id":"88650","group":"Group2","full_date":"2025-12-05T01:01:54.629Z","date":"2025-12-05","time":"01:01:54"},{"task":"memory_phase","broad_category":"M","image_png":"M_Phyllite_13.png","image_id":269,"category_name":"Phyllite","category":17,"distinct_rating":2.8,"distinct_type":"Bottom","rt":null,"stimulus":"Stimuli_Rocks480/M_Phyllite_13.png","response":null,"trial_type":"image-keyboard-response","trial_index":195,"plugin_version":"2.1.0","time_elapsed":4836234,"subject_id":"88650","group":"Group2","full_date":"2025-12-05T01:01:54.629Z","date":"2025-12-05","time":"01:01:54"},{"rt":null,"stimulus":"<p style=\"font-size: 50px; margin: 0; text-align: center;\">+</p>","response":null,"trial_type":"html-keyboard-response","trial_index":196,"plugin_version":"2.1.0","time_elapsed":4837236,"subject_id":"88650","group":"Group2","full_date":"2025-12-05T01:01:54.629Z","date":"2025-12-05","time":"01:01:54"},{"task":"memory_phase","broad_category":"S","image_png":"S_Rock Salt_15.png","image_id":447,"category_name":"Rock Salt","category":28,"distinct_rating":7.79,"distinct_type":"Top","rt":null,"stimulus":"Stimuli_Rocks480/S_Rock Salt_15.png","response":null,"trial_type":"image-keyboard-response","trial_index":197,"plugin_version":"2.1.0","time_elapsed":4839743,"subject_id":"88650","group":"Group2","full_date":"2025-12-05T01:01:54.629Z","date":"2025-12-05","time":"01:01:54"},{"rt":null,"stimulus":"<p style=\"font-size: 50px; margin: 0; text-align: center;\">+</p>","response":null,"trial_type":"html-keyboard-response","trial_index":198,"plugin_version":"2.1.0","time_elapsed":4840746,"subject_id":"88650","group":"Group2","full_date":"2025-12-05T01:01:54.629Z","date":"2025-12-05","time":"01:01:54"},{"task":"memory_phase","broad_category":"I","image_png":"I_Pumice_13.png","image_id":141,"category_name":"Pumice","category":9,"distinct_rating":3.12,"distinct_type":"Bottom","rt":null,"stimulus":"Stimuli_Rocks480/I_Pumice_13.png","response":null,"trial_type":"image-keyboard-response","trial_index":199,"plugin_version":"2.1.0","time_elapsed":4843262,"subject_id":"88650","group":"Group2","full_date":"2025-12-05T01:01:54.629Z","date":"2025-12-05","time":"01:01:54"},{"rt":null,"stimulus":"<p style=\"font-size: 50px; margin: 0; text-align: center;\">+</p>","response":null,"trial_type":"html-keyboard-response","trial_index":200,"plugin_version":"2.1.0","time_elapsed":4844278,"subject_id":"88650","group":"Group2","full_date":"2025-12-05T01:01:54.629Z","date":"2025-12-05","time":"01:01:54"},{"task":"memory_phase","broad_category":"I","image_png":"I_Obsidian_06.png","image_id":86,"category_name":"Obsidian","category":6,"distinct_rating":8.01,"distinct_type":"Top","rt":null,"stimulus":"Stimuli_Rocks480/I_Obsidian_06.png","response":null,"trial_type":"image-keyboard-response","trial_index":201,"plugin_version":"2.1.0","time_elapsed":4846793,"subject_id":"88650","group":"Group2","full_date":"2025-12-05T01:01:54.629Z","date":"2025-12-05","time":"01:01:54"},{"rt":null,"stimulus":"<p style=\"font-size: 50px; margin: 0; text-align: center;\">+</p>","response":null,"trial_type":"html-keyboard-response","trial_index":202,"plugin_version":"2.1.0","time_elapsed":4847799,"subject_id":"88650","group":"Group2","full_date":"2025-12-05T01:01:54.629Z","date":"2025-12-05","time":"01:01:54"},{"task":"memory_phase","broad_category":"I","image_png":"I_Diorite_15.png","image_id":47,"category_name":"Diorite","category":3,"distinct_rating":3.05,"distinct_type":"Bottom","rt":null,"stimulus":"Stimuli_Rocks480/I_Diorite_15.png","response":null,"trial_type":"image-keyboard-response","trial_index":203,"plugin_version":"2.1.0","time_elapsed":4850311,"subject_id":"88650","group":"Group2","full_date":"2025-12-05T01:01:54.629Z","date":"2025-12-05","time":"01:01:54"},{"rt":null,"stimulus":"<p style=\"font-size: 50px; margin: 0; text-align: center;\">+</p>","response":null,"trial_type":"html-keyboard-response","trial_index":204,"plugin_version":"2.1.0","time_elapsed":4851328,"subject_id":"88650","group":"Group2","full_date":"2025-12-05T01:01:54.629Z","date":"2025-12-05","time":"01:01:54"},{"task":"memory_phase","broad_category":"I","image_png":"I_Diorite_01.png","image_id":33,"category_name":"Diorite","category":3,"distinct_rating":2.97,"distinct_type":"Bottom","rt":null,"stimulus":"Stimuli_Rocks480/I_Diorite_01.png","response":null,"trial_type":"image-keyboard-response","trial_index":205,"plugin_version":"2.1.0","time_elapsed":4853843,"subject_id":"88650","group":"Group2","full_date":"2025-12-05T01:01:54.629Z","date":"2025-12-05","time":"01:01:54"},{"rt":null,"stimulus":"<p style=\"font-size: 50px; margin: 0; text-align: center;\">+</p>","response":null,"trial_type":"html-keyboard-response","trial_index":206,"plugin_version":"2.1.0","time_elapsed":4854846,"subject_id":"88650","group":"Group2","full_date":"2025-12-05T01:01:54.629Z","date":"2025-12-05","time":"01:01:54"},{"task":"memory_phase","broad_category":"S","image_png":"S_Sandstone_11.png","image_id":459,"category_name":"Sandstone","category":29,"distinct_rating":1.82,"distinct_type":"Bottom","rt":null,"stimulus":"Stimuli_Rocks480/S_Sandstone_11.png","response":null,"trial_type":"image-keyboard-response","trial_index":207,"plugin_version":"2.1.0","time_elapsed":4857355,"subject_id":"88650","group":"Group2","full_date":"2025-12-05T01:01:54.629Z","date":"2025-12-05","time":"01:01:54"},{"rt":1095,"stimulus":"<p style=\"max-width: 760px; margin: auto; font-size: 35px; line-height: 1.5;\">You have completed 2 study phases. Now, we'll show you all the images again 1 more time.<br><br>Press SPACE to continue</p>","response":" ","trial_type":"html-keyboard-response","trial_index":208,"plugin_version":"2.1.0","time_elapsed":4858450,"subject_id":"88650","group":"Group2","full_date":"2025-12-05T01:01:54.629Z","date":"2025-12-05","time":"01:01:54"},{"rt":null,"stimulus":"<p style=\"font-size: 50px; margin: 0; text-align: center;\">+</p>","response":null,"trial_type":"html-keyboard-response","trial_index":209,"plugin_version":"2.1.0","time_elapsed":4859452,"subject_id":"88650","group":"Group2","full_date":"2025-12-05T01:01:54.629Z","date":"2025-12-05","time":"01:01:54"},{"task":"memory_phase","broad_category":"S","image_png":"S_Dolomite_07.png","image_id":391,"category_name":"Dolomite","category":25,"distinct_rating":1.73,"distinct_type":"Bottom","rt":null,"stimulus":"Stimuli_Rocks480/S_Dolomite_07.png","response":null,"trial_type":"image-keyboard-response","trial_index":210,"plugin_version":"2.1.0","time_elapsed":4861962,"subject_id":"88650","group":"Group2","full_date":"2025-12-05T01:01:54.629Z","date":"2025-12-05","time":"01:01:54"},{"rt":null,"stimulus":"<p style=\"font-size: 50px; margin: 0; text-align: center;\">+</p>","response":null,"trial_type":"html-keyboard-response","trial_index":211,"plugin_version":"2.1.0","time_elapsed":4862972,"subject_id":"88650","group":"Group2","full_date":"2025-12-05T01:01:54.629Z","date":"2025-12-05","time":"01:01:54"},{"task":"memory_phase","broad_category":"S","image_png":"S_Dolomite_01.png","image_id":385,"category_name":"Dolomite","category":25,"distinct_rating":1.43,"distinct_type":"Bottom","rt":null,"stimulus":"Stimuli_Rocks480/S_Dolomite_01.png","response":null,"trial_type":"image-keyboard-response","trial_index":212,"plugin_version":"2.1.0","time_elapsed":4865486,"subject_id":"88650","group":"Group2","full_date":"2025-12-05T01:01:54.629Z","date":"2025-12-05","time":"01:01:54"},{"rt":null,"stimulus":"<p style=\"font-size: 50px; margin: 0; text-align: center;\">+</p>","response":null,"trial_type":"html-keyboard-response","trial_index":213,"plugin_version":"2.1.0","time_elapsed":4866492,"subject_id":"88650","group":"Group2","full_date":"2025-12-05T01:01:54.629Z","date":"2025-12-05","time":"01:01:54"},{"task":"memory_phase","broad_category":"I","image_png":"I_Pumice_13.png","image_id":141,"category_name":"Pumice","category":9,"distinct_rating":3.12,"distinct_type":"Bottom","rt":null,"stimulus":"Stimuli_Rocks480/I_Pumice_13.png","response":null,"trial_type":"image-keyboard-response","trial_index":214,"plugin_version":"2.1.0","time_elapsed":4868999,"subject_id":"88650","group":"Group2","full_date":"2025-12-05T01:01:54.629Z","date":"2025-12-05","time":"01:01:54"},{"rt":null,"stimulus":"<p style=\"font-size: 50px; margin: 0; text-align: center;\">+</p>","response":null,"trial_type":"html-keyboard-response","trial_index":215,"plugin_version":"2.1.0","time_elapsed":4870008,"subject_id":"88650","group":"Group2","full_date":"2025-12-05T01:01:54.629Z","date":"2025-12-05","time":"01:01:54"},{"task":"memory_phase","broad_category":"S","image_png":"S_Shale_02.png","image_id":466,"category_name":"Shale","category":30,"distinct_rating":2.9,"distinct_type":"Bottom","rt":null,"stimulus":"Stimuli_Rocks480/S_Shale_02.png","response":null,"trial_type":"image-keyboard-response","trial_index":216,"plugin_version":"2.1.0","time_elapsed":4872520,"subject_id":"88650","group":"Group2","full_date":"2025-12-05T01:01:54.629Z","date":"2025-12-05","time":"01:01:54"},{"rt":null,"stimulus":"<p style=\"font-size: 50px; margin: 0; text-align: center;\">+</p>","response":null,"trial_type":"html-keyboard-response","trial_index":217,"plugin_version":"2.1.0","time_elapsed":4873533,"subject_id":"88650","group":"Group2","full_date":"2025-12-05T01:01:54.629Z","date":"2025-12-05","time":"01:01:54"},{"task":"memory_phase","broad_category":"S","image_png":"S_Rock Salt_13.png","image_id":445,"category_name":"Rock Salt","category":28,"distinct_rating":7.58,"distinct_type":"Top","rt":null,"stimulus":"Stimuli_Rocks480/S_Rock Salt_13.png","response":null,"trial_type":"image-keyboard-response","trial_index":218,"plugin_version":"2.1.0","time_elapsed":4876045,"subject_id":"88650","group":"Group2","full_date":"2025-12-05T01:01:54.629Z","date":"2025-12-05","time":"01:01:54"},{"rt":null,"stimulus":"<p style=\"font-size: 50px; margin: 0; text-align: center;\">+</p>","response":null,"trial_type":"html-keyboard-response","trial_index":219,"plugin_version":"2.1.0","time_elapsed":4877053,"subject_id":"88650","group":"Group2","full_date":"2025-12-05T01:01:54.629Z","date":"2025-12-05","time":"01:01:54"},{"task":"memory_phase","broad_category":"S","image_png":"S_Conglomerate_14.png","image_id":382,"category_name":"Conglomerate","category":24,"distinct_rating":6.86,"distinct_type":"Top","rt":null,"stimulus":"Stimuli_Rocks480/S_Conglomerate_14.png","response":null,"trial_type":"image-keyboard-response","trial_index":220,"plugin_version":"2.1.0","time_elapsed":4879568,"subject_id":"88650","group":"Group2","full_date":"2025-12-05T01:01:54.629Z","date":"2025-12-05","time":"01:01:54"},{"rt":null,"stimulus":"<p style=\"font-size: 50px; margin: 0; text-align: center;\">+</p>","response":null,"trial_type":"html-keyboard-response","trial_index":221,"plugin_version":"2.1.0","time_elapsed":4880570,"subject_id":"88650","group":"Group2","full_date":"2025-12-05T01:01:54.629Z","date":"2025-12-05","time":"01:01:54"},{"task":"memory_phase","broad_category":"M","image_png":"M_Slate_14.png","image_id":318,"category_name":"Slate","category":20,"distinct_rating":2.58,"distinct_type":"Bottom","rt":null,"stimulus":"Stimuli_Rocks480/M_Slate_14.png","response":null,"trial_type":"image-keyboard-response","trial_index":222,"plugin_version":"2.1.0","time_elapsed":4883077,"subject_id":"88650","group":"Group2","full_date":"2025-12-05T01:01:54.629Z","date":"2025-12-05","time":"01:01:54"},{"rt":null,"stimulus":"<p style=\"font-size: 50px; margin: 0; text-align: center;\">+</p>","response":null,"trial_type":"html-keyboard-response","trial_index":223,"plugin_version":"2.1.0","time_elapsed":4884090,"subject_id":"88650","group":"Group2","full_date":"2025-12-05T01:01:54.629Z","date":"2025-12-05","time":"01:01:54"},{"task":"memory_phase","broad_category":"I","image_png":"I_Pegmatite_11.png","image_id":107,"category_name":"Pegmatite","category":7,"distinct_rating":7.11,"distinct_type":"Top","rt":null,"stimulus":"Stimuli_Rocks480/I_Pegmatite_11.png","response":null,"trial_type":"image-keyboard-response","trial_index":224,"plugin_version":"2.1.0","time_elapsed":4886596,"subject_id":"88650","group":"Group2","full_date":"2025-12-05T01:01:54.629Z","date":"2025-12-05","time":"01:01:54"},{"rt":null,"stimulus":"<p style=\"font-size: 50px; margin: 0; text-align: center;\">+</p>","response":null,"trial_type":"html-keyboard-response","trial_index":225,"plugin_version":"2.1.0","time_elapsed":4887597,"subject_id":"88650","group":"Group2","full_date":"2025-12-05T01:01:54.629Z","date":"2025-12-05","time":"01:01:54"},{"task":"memory_phase","broad_category":"S","image_png":"S_Sandstone_11.png","image_id":459,"category_name":"Sandstone","category":29,"distinct_rating":1.82,"distinct_type":"Bottom","rt":null,"stimulus":"Stimuli_Rocks480/S_Sandstone_11.png","response":null,"trial_type":"image-keyboard-response","trial_index":226,"plugin_version":"2.1.0","time_elapsed":4890105,"subject_id":"88650","group":"Group2","full_date":"2025-12-05T01:01:54.629Z","date":"2025-12-05","time":"01:01:54"},{"rt":null,"stimulus":"<p style=\"font-size: 50px; margin: 0; text-align: center;\">+</p>","response":null,"trial_type":"html-keyboard-response","trial_index":227,"plugin_version":"2.1.0","time_elapsed":4891107,"subject_id":"88650","group":"Group2","full_date":"2025-12-05T01:01:54.629Z","date":"2025-12-05","time":"01:01:54"},{"task":"memory_phase","broad_category":"I","image_png":"I_Basalt_10.png","image_id":26,"category_name":"Basalt","category":2,"distinct_rating":2.76,"distinct_type":"Bottom","rt":null,"stimulus":"Stimuli_Rocks480/I_Basalt_10.png","response":null,"trial_type":"image-keyboard-response","trial_index":228,"plugin_version":"2.1.0","time_elapsed":4893612,"subject_id":"88650","group":"Group2","full_date":"2025-12-05T01:01:54.629Z","date":"2025-12-05","time":"01:01:54"},{"rt":null,"stimulus":"<p style=\"font-size: 50px; margin: 0; text-align: center;\">+</p>","response":null,"trial_type":"html-keyboard-response","trial_index":229,"plugin_version":"2.1.0","time_elapsed":4894613,"subject_id":"88650","group":"Group2","full_date":"2025-12-05T01:01:54.629Z","date":"2025-12-05","time":"01:01:54"},{"task":"memory_phase","broad_category":"S","image_png":"S_Shale_03.png","image_id":467,"category_name":"Shale","category":30,"distinct_rating":1.95,"distinct_type":"Bottom","rt":null,"stimulus":"Stimuli_Rocks480/S_Shale_03.png","response":null,"trial_type":"image-keyboard-response","trial_index":230,"plugin_version":"2.1.0","time_elapsed":4897130,"subject_id":"88650","group":"Group2","full_date":"2025-12-05T01:01:54.629Z","date":"2025-12-05","time":"01:01:54"},{"rt":null,"stimulus":"<p style=\"font-size: 50px; margin: 0; text-align: center;\">+</p>","response":null,"trial_type":"html-keyboard-response","trial_index":231,"plugin_version":"2.1.0","time_elapsed":4898143,"subject_id":"88650","group":"Group2","full_date":"2025-12-05T01:01:54.629Z","date":"2025-12-05","time":"01:01:54"},{"task":"memory_phase","broad_category":"M","image_png":"M_Gneiss_15.png","image_id":207,"category_name":"Gneiss","category":13,"distinct_rating":3.11,"distinct_type":"Bottom","rt":null,"stimulus":"Stimuli_Rocks480/M_Gneiss_15.png","response":null,"trial_type":"image-keyboard-response","trial_index":232,"plugin_version":"2.1.0","time_elapsed":4900653,"subject_id":"88650","group":"Group2","full_date":"2025-12-05T01:01:54.629Z","date":"2025-12-05","time":"01:01:54"},{"rt":null,"stimulus":"<p style=\"font-size: 50px; margin: 0; text-align: center;\">+</p>","response":null,"trial_type":"html-keyboard-response","trial_index":233,"plugin_version":"2.1.0","time_elapsed":4901669,"subject_id":"88650","group":"Group2","full_date":"2025-12-05T01:01:54.629Z","date":"2025-12-05","time":"01:01:54"},{"task":"memory_phase","broad_category":"M","image_png":"M_Gneiss_10.png","image_id":202,"category_name":"Gneiss","category":13,"distinct_rating":3.09,"distinct_type":"Bottom","rt":null,"stimulus":"Stimuli_Rocks480/M_Gneiss_10.png","response":null,"trial_type":"image-keyboard-response","trial_index":234,"plugin_version":"2.1.0","time_elapsed":4904175,"subject_id":"88650","group":"Group2","full_date":"2025-12-05T01:01:54.629Z","date":"2025-12-05","time":"01:01:54"},{"rt":null,"stimulus":"<p style=\"font-size: 50px; margin: 0; text-align: center;\">+</p>","response":null,"trial_type":"html-keyboard-response","trial_index":235,"plugin_version":"2.1.0","time_elapsed":4905191,"subject_id":"88650","group":"Group2","full_date":"2025-12-05T01:01:54.629Z","date":"2025-12-05","time":"01:01:54"},{"task":"memory_phase","broad_category":"M","image_png":"M_Phyllite_13.png","image_id":269,"category_name":"Phyllite","category":17,"distinct_rating":2.8,"distinct_type":"Bottom","rt":null,"stimulus":"Stimuli_Rocks480/M_Phyllite_13.png","response":null,"trial_type":"image-keyboard-response","trial_index":236,"plugin_version":"2.1.0","time_elapsed":4907699,"subject_id":"88650","group":"Group2","full_date":"2025-12-05T01:01:54.629Z","date":"2025-12-05","time":"01:01:54"},{"rt":null,"stimulus":"<p style=\"font-size: 50px; margin: 0; text-align: center;\">+</p>","response":null,"trial_type":"html-keyboard-response","trial_index":237,"plugin_version":"2.1.0","time_elapsed":4908714,"subject_id":"88650","group":"Group2","full_date":"2025-12-05T01:01:54.629Z","date":"2025-12-05","time":"01:01:54"},{"task":"memory_phase","broad_category":"I","image_png":"I_Diorite_10.png","image_id":42,"category_name":"Diorite","category":3,"distinct_rating":2.84,"distinct_type":"Bottom","rt":null,"stimulus":"Stimuli_Rocks480/I_Diorite_10.png","response":null,"trial_type":"image-keyboard-response","trial_index":238,"plugin_version":"2.1.0","time_elapsed":4911226,"subject_id":"88650","group":"Group2","full_date":"2025-12-05T01:01:54.629Z","date":"2025-12-05","time":"01:01:54"},{"rt":null,"stimulus":"<p style=\"font-size: 50px; margin: 0; text-align: center;\">+</p>","response":null,"trial_type":"html-keyboard-response","trial_index":239,"plugin_version":"2.1.0","time_elapsed":4912239,"subject_id":"88650","group":"Group2","full_date":"2025-12-05T01:01:54.629Z","date":"2025-12-05","time":"01:01:54"},{"task":"memory_phase","broad_category":"I","image_png":"I_Basalt_13.png","image_id":29,"category_name":"Basalt","category":2,"distinct_rating":2.68,"distinct_type":"Bottom","rt":null,"stimulus":"Stimuli_Rocks480/I_Basalt_13.png","response":null,"trial_type":"image-keyboard-response","trial_index":240,"plugin_version":"2.1.0","time_elapsed":4914748,"subject_id":"88650","group":"Group2","full_date":"2025-12-05T01:01:54.629Z","date":"2025-12-05","time":"01:01:54"},{"rt":null,"stimulus":"<p style=\"font-size: 50px; margin: 0; text-align: center;\">+</p>","response":null,"trial_type":"html-keyboard-response","trial_index":241,"plugin_version":"2.1.0","time_elapsed":4915761,"subject_id":"88650","group":"Group2","full_date":"2025-12-05T01:01:54.629Z","date":"2025-12-05","time":"01:01:54"},{"task":"memory_phase","broad_category":"I","image_png":"I_Pumice_14.png","image_id":142,"category_name":"Pumice","category":9,"distinct_rating":3.22,"distinct_type":"Bottom","rt":null,"stimulus":"Stimuli_Rocks480/I_Pumice_14.png","response":null,"trial_type":"image-keyboard-response","trial_index":242,"plugin_version":"2.1.0","time_elapsed":4918276,"subject_id":"88650","group":"Group2","full_date":"2025-12-05T01:01:54.629Z","date":"2025-12-05","time":"01:01:54"},{"rt":null,"stimulus":"<p style=\"font-size: 50px; margin: 0; text-align: center;\">+</p>","response":null,"trial_type":"html-keyboard-response","trial_index":243,"plugin_version":"2.1.0","time_elapsed":4919292,"subject_id":"88650","group":"Group2","full_date":"2025-12-05T01:01:54.629Z","date":"2025-12-05","time":"01:01:54"},{"task":"memory_phase","broad_category":"M","image_png":"M_Quartzite_12.png","image_id":284,"category_name":"Quartzite","category":18,"distinct_rating":1.92,"distinct_type":"Bottom","rt":null,"stimulus":"Stimuli_Rocks480/M_Quartzite_12.png","response":null,"trial_type":"image-keyboard-response","trial_index":244,"plugin_version":"2.1.0","time_elapsed":4921809,"subject_id":"88650","group":"Group2","full_date":"2025-12-05T01:01:54.629Z","date":"2025-12-05","time":"01:01:54"},{"rt":null,"stimulus":"<p style=\"font-size: 50px; margin: 0; text-align: center;\">+</p>","response":null,"trial_type":"html-keyboard-response","trial_index":245,"plugin_version":"2.1.0","time_elapsed":4922822,"subject_id":"88650","group":"Group2","full_date":"2025-12-05T01:01:54.629Z","date":"2025-12-05","time":"01:01:54"},{"task":"memory_phase","broad_category":"S","image_png":"S_Sandstone_04.png","image_id":452,"category_name":"Sandstone","category":29,"distinct_rating":1.8,"distinct_type":"Bottom","rt":null,"stimulus":"Stimuli_Rocks480/S_Sandstone_04.png","response":null,"trial_type":"image-keyboard-response","trial_index":246,"plugin_version":"2.1.0","time_elapsed":4925328,"subject_id":"88650","group":"Group2","full_date":"2025-12-05T01:01:54.629Z","date":"2025-12-05","time":"01:01:54"},{"rt":null,"stimulus":"<p style=\"font-size: 50px; margin: 0; text-align: center;\">+</p>","response":null,"trial_type":"html-keyboard-response","trial_index":247,"plugin_version":"2.1.0","time_elapsed":4926331,"subject_id":"88650","group":"Group2","full_date":"2025-12-05T01:01:54.629Z","date":"2025-12-05","time":"01:01:54"},{"task":"memory_phase","broad_category":"I","image_png":"I_Basalt_08.png","image_id