[{"width":1710,"height":904,"webaudio":true,"browser":"chrome","browser_version":"139.0.0","mobile":false,"os":"Mac OS","fullscreen":true,"vsync_rate":60.12,"webcam":true,"microphone":true,"trial_type":"browser-check","trial_index":0,"plugin_version":"2.1.0","time_elapsed":1011,"subject_id":"88293","group":"Group2","full_date":"2025-11-29T22:29:17.861Z","date":"2025-11-29","time":"22:29:17"},{"success":true,"timeout":false,"failed_images":[],"failed_audio":[],"failed_video":[],"trial_type":"preload","trial_index":1,"plugin_version":"2.1.0","time_elapsed":24768,"subject_id":"88293","group":"Group2","full_date":"2025-11-29T22:29:17.861Z","date":"2025-11-29","time":"22:29:17"},{"rt":227918,"url":"SONA_consent_memorability.html","trial_type":"external-html","trial_index":2,"plugin_version":"2.1.0","time_elapsed":252729,"subject_id":"88293","group":"Group2","full_date":"2025-11-29T22:29:17.861Z","date":"2025-11-29","time":"22:29:17"},{"success":true,"rt":2062,"trial_type":"fullscreen","trial_index":3,"plugin_version":"2.1.0","time_elapsed":255796,"subject_id":"88293","group":"Group2","full_date":"2025-11-29T22:29:17.861Z","date":"2025-11-29","time":"22:29:17"},{"rt":8611,"stimulus":"<div style=\"max-width: 760px; margin: auto; font-size: 20px; line-height: 1.5;\">\n      <h1 style=\"text-align:center; font-size: 30px;\">Instructions</h1>\n      <p>\n        Welcome to the study on <b>visual memory</b>. This experiment consists of <b>two phases</b>: \n        a <b>study phase</b> and a <b>test phase</b>.\n      </p>\n      <p>\n        In the study phase, you will see a series of rock images along with their category labels.\n        The images will appear one at a time.\n        <b>Your task</b> is to learn the categories to which the rock images belong \n        and to remember each image as accurately as possible.\n      </p> \n      <p>\n        Note that we will repeat the study phase <b>3 times</b>, \n        so you will have multiple opportunities to see and remember each image.\n      </p>\n      <p>\n        After the study phase, <b>your memory will be tested</b>. \n        Additional instructions for the test phase will be provided at that time.\n      </p>\n      <p>\n        If your computer has multiple <b>language settings</b> (e.g., English and another language),\n        please make sure it is set to English before starting.\n      </p>\n      <p>\n        You can track your progress using the <b>completion bar</b> at the top of the screen. \n        Please note that the bar will refresh when the test phase begins \n        to give you an accurate sense of your progress in both phases.\n      </p> \n      <p>\n        Press the button below when you are ready to begin.\n      </p>\n    </div>","response":0,"trial_type":"html-button-response","trial_index":4,"plugin_version":"2.1.0","time_elapsed":264410,"subject_id":"88293","group":"Group2","full_date":"2025-11-29T22:29:17.861Z","date":"2025-11-29","time":"22:29:17"},{"rt":null,"stimulus":"<p style=\"font-size: 50px; margin: 0; text-align: center;\">+</p>","response":null,"trial_type":"html-keyboard-response","trial_index":5,"plugin_version":"2.1.0","time_elapsed":265414,"subject_id":"88293","group":"Group2","full_date":"2025-11-29T22:29:17.861Z","date":"2025-11-29","time":"22:29:17"},{"task":"memory_phase","broad_category":"I","image_png":"I_Andesite_04.png","image_id":4,"category_name":"Andesite","category":1,"distinct_rating":3.18,"distinct_type":"Bottom","rt":null,"stimulus":"Stimuli_Rocks480/I_Andesite_04.png","response":null,"trial_type":"image-keyboard-response","trial_index":6,"plugin_version":"2.1.0","time_elapsed":267921,"subject_id":"88293","group":"Group2","full_date":"2025-11-29T22:29:17.861Z","date":"2025-11-29","time":"22:29:17"},{"rt":null,"stimulus":"<p style=\"font-size: 50px; margin: 0; text-align: center;\">+</p>","response":null,"trial_type":"html-keyboard-response","trial_index":7,"plugin_version":"2.1.0","time_elapsed":268923,"subject_id":"88293","group":"Group2","full_date":"2025-11-29T22:29:17.861Z","date":"2025-11-29","time":"22:29:17"},{"task":"memory_phase","broad_category":"I","image_png":"I_Rhyolite_10.png","image_id":154,"category_name":"Rhyolite","category":10,"distinct_rating":2.88,"distinct_type":"Bottom","rt":null,"stimulus":"Stimuli_Rocks480/I_Rhyolite_10.png","response":null,"trial_type":"image-keyboard-response","trial_index":8,"plugin_version":"2.1.0","time_elapsed":271427,"subject_id":"88293","group":"Group2","full_date":"2025-11-29T22:29:17.861Z","date":"2025-11-29","time":"22:29:17"},{"rt":null,"stimulus":"<p style=\"font-size: 50px; margin: 0; text-align: center;\">+</p>","response":null,"trial_type":"html-keyboard-response","trial_index":9,"plugin_version":"2.1.0","time_elapsed":272430,"subject_id":"88293","group":"Group2","full_date":"2025-11-29T22:29:17.861Z","date":"2025-11-29","time":"22:29:17"},{"task":"memory_phase","broad_category":"S","image_png":"S_Dolomite_07.png","image_id":391,"category_name":"Dolomite","category":25,"distinct_rating":1.73,"distinct_type":"Bottom","rt":null,"stimulus":"Stimuli_Rocks480/S_Dolomite_07.png","response":null,"trial_type":"image-keyboard-response","trial_index":10,"plugin_version":"2.1.0","time_elapsed":274934,"subject_id":"88293","group":"Group2","full_date":"2025-11-29T22:29:17.861Z","date":"2025-11-29","time":"22:29:17"},{"rt":null,"stimulus":"<p style=\"font-size: 50px; margin: 0; text-align: center;\">+</p>","response":null,"trial_type":"html-keyboard-response","trial_index":11,"plugin_version":"2.1.0","time_elapsed":275937,"subject_id":"88293","group":"Group2","full_date":"2025-11-29T22:29:17.861Z","date":"2025-11-29","time":"22:29:17"},{"task":"memory_phase","broad_category":"S","image_png":"S_Sandstone_04.png","image_id":452,"category_name":"Sandstone","category":29,"distinct_rating":1.8,"distinct_type":"Bottom","rt":null,"stimulus":"Stimuli_Rocks480/S_Sandstone_04.png","response":null,"trial_type":"image-keyboard-response","trial_index":12,"plugin_version":"2.1.0","time_elapsed":278440,"subject_id":"88293","group":"Group2","full_date":"2025-11-29T22:29:17.861Z","date":"2025-11-29","time":"22:29:17"},{"rt":null,"stimulus":"<p style=\"font-size: 50px; margin: 0; text-align: center;\">+</p>","response":null,"trial_type":"html-keyboard-response","trial_index":13,"plugin_version":"2.1.0","time_elapsed":279442,"subject_id":"88293","group":"Group2","full_date":"2025-11-29T22:29:17.861Z","date":"2025-11-29","time":"22:29:17"},{"task":"memory_phase","broad_category":"M","image_png":"M_Gneiss_15.png","image_id":207,"category_name":"Gneiss","category":13,"distinct_rating":3.11,"distinct_type":"Bottom","rt":null,"stimulus":"Stimuli_Rocks480/M_Gneiss_15.png","response":null,"trial_type":"image-keyboard-response","trial_index":14,"plugin_version":"2.1.0","time_elapsed":281946,"subject_id":"88293","group":"Group2","full_date":"2025-11-29T22:29:17.861Z","date":"2025-11-29","time":"22:29:17"},{"rt":null,"stimulus":"<p style=\"font-size: 50px; margin: 0; text-align: center;\">+</p>","response":null,"trial_type":"html-keyboard-response","trial_index":15,"plugin_version":"2.1.0","time_elapsed":282949,"subject_id":"88293","group":"Group2","full_date":"2025-11-29T22:29:17.861Z","date":"2025-11-29","time":"22:29:17"},{"task":"memory_phase","broad_category":"S","image_png":"S_Shale_02.png","image_id":466,"category_name":"Shale","category":30,"distinct_rating":2.9,"distinct_type":"Bottom","rt":null,"stimulus":"Stimuli_Rocks480/S_Shale_02.png","response":null,"trial_type":"image-keyboard-response","trial_index":16,"plugin_version":"2.1.0","time_elapsed":285452,"subject_id":"88293","group":"Group2","full_date":"2025-11-29T22:29:17.861Z","date":"2025-11-29","time":"22:29:17"},{"rt":null,"stimulus":"<p style=\"font-size: 50px; margin: 0; text-align: center;\">+</p>","response":null,"trial_type":"html-keyboard-response","trial_index":17,"plugin_version":"2.1.0","time_elapsed":286455,"subject_id":"88293","group":"Group2","full_date":"2025-11-29T22:29:17.861Z","date":"2025-11-29","time":"22:29:17"},{"task":"memory_phase","broad_category":"I","image_png":"I_Peridotite_13.png","image_id":125,"category_name":"Peridotite","category":8,"distinct_rating":7.28,"distinct_type":"Top","rt":null,"stimulus":"Stimuli_Rocks480/I_Peridotite_13.png","response":null,"trial_type":"image-keyboard-response","trial_index":18,"plugin_version":"2.1.0","time_elapsed":288959,"subject_id":"88293","group":"Group2","full_date":"2025-11-29T22:29:17.861Z","date":"2025-11-29","time":"22:29:17"},{"rt":null,"stimulus":"<p style=\"font-size: 50px; margin: 0; text-align: center;\">+</p>","response":null,"trial_type":"html-keyboard-response","trial_index":19,"plugin_version":"2.1.0","time_elapsed":289961,"subject_id":"88293","group":"Group2","full_date":"2025-11-29T22:29:17.861Z","date":"2025-11-29","time":"22:29:17"},{"task":"memory_phase","broad_category":"M","image_png":"M_Gneiss_14.png","image_id":206,"category_name":"Gneiss","category":13,"distinct_rating":3.41,"distinct_type":"Bottom","rt":null,"stimulus":"Stimuli_Rocks480/M_Gneiss_14.png","response":null,"trial_type":"image-keyboard-response","trial_index":20,"plugin_version":"2.1.0","time_elapsed":292465,"subject_id":"88293","group":"Group2","full_date":"2025-11-29T22:29:17.861Z","date":"2025-11-29","time":"22:29:17"},{"rt":null,"stimulus":"<p style=\"font-size: 50px; margin: 0; text-align: center;\">+</p>","response":null,"trial_type":"html-keyboard-response","trial_index":21,"plugin_version":"2.1.0","time_elapsed":293467,"subject_id":"88293","group":"Group2","full_date":"2025-11-29T22:29:17.861Z","date":"2025-11-29","time":"22:29:17"},{"task":"memory_phase","broad_category":"M","image_png":"M_Quartzite_12.png","image_id":284,"category_name":"Quartzite","category":18,"distinct_rating":1.92,"distinct_type":"Bottom","rt":null,"stimulus":"Stimuli_Rocks480/M_Quartzite_12.png","response":null,"trial_type":"image-keyboard-response","trial_index":22,"plugin_version":"2.1.0","time_elapsed":295970,"subject_id":"88293","group":"Group2","full_date":"2025-11-29T22:29:17.861Z","date":"2025-11-29","time":"22:29:17"},{"rt":null,"stimulus":"<p style=\"font-size: 50px; margin: 0; text-align: center;\">+</p>","response":null,"trial_type":"html-keyboard-response","trial_index":23,"plugin_version":"2.1.0","time_elapsed":296973,"subject_id":"88293","group":"Group2","full_date":"2025-11-29T22:29:17.861Z","date":"2025-11-29","time":"22:29:17"},{"task":"memory_phase","broad_category":"S","image_png":"S_Rock Salt_15.png","image_id":447,"category_name":"Rock Salt","category":28,"distinct_rating":7.79,"distinct_type":"Top","rt":null,"stimulus":"Stimuli_Rocks480/S_Rock Salt_15.png","response":null,"trial_type":"image-keyboard-response","trial_index":24,"plugin_version":"2.1.0","time_elapsed":299476,"subject_id":"88293","group":"Group2","full_date":"2025-11-29T22:29:17.861Z","date":"2025-11-29","time":"22:29:17"},{"rt":null,"stimulus":"<p style=\"font-size: 50px; margin: 0; text-align: center;\">+</p>","response":null,"trial_type":"html-keyboard-response","trial_index":25,"plugin_version":"2.1.0","time_elapsed":300479,"subject_id":"88293","group":"Group2","full_date":"2025-11-29T22:29:17.861Z","date":"2025-11-29","time":"22:29:17"},{"task":"memory_phase","broad_category":"M","image_png":"M_Marble_03.png","image_id":227,"category_name":"Marble","category":15,"distinct_rating":2.67,"distinct_type":"Bottom","rt":null,"stimulus":"Stimuli_Rocks480/M_Marble_03.png","response":null,"trial_type":"image-keyboard-response","trial_index":26,"plugin_version":"2.1.0","time_elapsed":302982,"subject_id":"88293","group":"Group2","full_date":"2025-11-29T22:29:17.861Z","date":"2025-11-29","time":"22:29:17"},{"rt":null,"stimulus":"<p style=\"font-size: 50px; margin: 0; text-align: center;\">+</p>","response":null,"trial_type":"html-keyboard-response","trial_index":27,"plugin_version":"2.1.0","time_elapsed":303985,"subject_id":"88293","group":"Group2","full_date":"2025-11-29T22:29:17.861Z","date":"2025-11-29","time":"22:29:17"},{"task":"memory_phase","broad_category":"I","image_png":"I_Gabbro_12.png","image_id":60,"category_name":"Gabbro","category":4,"distinct_rating":2.6,"distinct_type":"Bottom","rt":null,"stimulus":"Stimuli_Rocks480/I_Gabbro_12.png","response":null,"trial_type":"image-keyboard-response","trial_index":28,"plugin_version":"2.1.0","time_elapsed":306488,"subject_id":"88293","group":"Group2","full_date":"2025-11-29T22:29:17.861Z","date":"2025-11-29","time":"22:29:17"},{"rt":null,"stimulus":"<p style=\"font-size: 50px; margin: 0; text-align: center;\">+</p>","response":null,"trial_type":"html-keyboard-response","trial_index":29,"plugin_version":"2.1.0","time_elapsed":307491,"subject_id":"88293","group":"Group2","full_date":"2025-11-29T22:29:17.861Z","date":"2025-11-29","time":"22:29:17"},{"task":"memory_phase","broad_category":"S","image_png":"S_Sandstone_08.png","image_id":456,"category_name":"Sandstone","category":29,"distinct_rating":1.5,"distinct_type":"Bottom","rt":null,"stimulus":"Stimuli_Rocks480/S_Sandstone_08.png","response":null,"trial_type":"image-keyboard-response","trial_index":30,"plugin_version":"2.1.0","time_elapsed":309995,"subject_id":"88293","group":"Group2","full_date":"2025-11-29T22:29:17.861Z","date":"2025-11-29","time":"22:29:17"},{"rt":null,"stimulus":"<p style=\"font-size: 50px; margin: 0; text-align: center;\">+</p>","response":null,"trial_type":"html-keyboard-response","trial_index":31,"plugin_version":"2.1.0","time_elapsed":310996,"subject_id":"88293","group":"Group2","full_date":"2025-11-29T22:29:17.861Z","date":"2025-11-29","time":"22:29:17"},{"task":"memory_phase","broad_category":"M","image_png":"M_Phyllite_13.png","image_id":269,"category_name":"Phyllite","category":17,"distinct_rating":2.8,"distinct_type":"Bottom","rt":null,"stimulus":"Stimuli_Rocks480/M_Phyllite_13.png","response":null,"trial_type":"image-keyboard-response","trial_index":32,"plugin_version":"2.1.0","time_elapsed":313499,"subject_id":"88293","group":"Group2","full_date":"2025-11-29T22:29:17.861Z","date":"2025-11-29","time":"22:29:17"},{"rt":null,"stimulus":"<p style=\"font-size: 50px; margin: 0; text-align: center;\">+</p>","response":null,"trial_type":"html-keyboard-response","trial_index":33,"plugin_version":"2.1.0","time_elapsed":314502,"subject_id":"88293","group":"Group2","full_date":"2025-11-29T22:29:17.861Z","date":"2025-11-29","time":"22:29:17"},{"task":"memory_phase","broad_category":"S","image_png":"S_Dolomite_16.png","image_id":400,"category_name":"Dolomite","category":25,"distinct_rating":1.71,"distinct_type":"Bottom","rt":null,"stimulus":"Stimuli_Rocks480/S_Dolomite_16.png","response":null,"trial_type":"image-keyboard-response","trial_index":34,"plugin_version":"2.1.0","time_elapsed":317004,"subject_id":"88293","group":"Group2","full_date":"2025-11-29T22:29:17.861Z","date":"2025-11-29","time":"22:29:17"},{"rt":null,"stimulus":"<p style=\"font-size: 50px; margin: 0; text-align: center;\">+</p>","response":null,"trial_type":"html-keyboard-response","trial_index":35,"plugin_version":"2.1.0","time_elapsed":318007,"subject_id":"88293","group":"Group2","full_date":"2025-11-29T22:29:17.861Z","date":"2025-11-29","time":"22:29:17"},{"task":"memory_phase","broad_category":"M","image_png":"M_Quartzite_07.png","image_id":279,"category_name":"Quartzite","category":18,"distinct_rating":1.97,"distinct_type":"Bottom","rt":null,"stimulus":"Stimuli_Rocks480/M_Quartzite_07.png","response":null,"trial_type":"image-keyboard-response","trial_index":36,"plugin_version":"2.1.0","time_elapsed":320510,"subject_id":"88293","group":"Group2","full_date":"2025-11-29T22:29:17.861Z","date":"2025-11-29","time":"22:29:17"},{"rt":null,"stimulus":"<p style=\"font-size: 50px; margin: 0; text-align: center;\">+</p>","response":null,"trial_type":"html-keyboard-response","trial_index":37,"plugin_version":"2.1.0","time_elapsed":321513,"subject_id":"88293","group":"Group2","full_date":"2025-11-29T22:29:17.861Z","date":"2025-11-29","time":"22:29:17"},{"task":"memory_phase","broad_category":"S","image_png":"S_Dolomite_01.png","image_id":385,"category_name":"Dolomite","category":25,"distinct_rating":1.43,"distinct_type":"Bottom","rt":null,"stimulus":"Stimuli_Rocks480/S_Dolomite_01.png","response":null,"trial_type":"image-keyboard-response","trial_index":38,"plugin_version":"2.1.0","time_elapsed":324017,"subject_id":"88293","group":"Group2","full_date":"2025-11-29T22:29:17.861Z","date":"2025-11-29","time":"22:29:17"},{"rt":null,"stimulus":"<p style=\"font-size: 50px; margin: 0; text-align: center;\">+</p>","response":null,"trial_type":"html-keyboard-response","trial_index":39,"plugin_version":"2.1.0","time_elapsed":325020,"subject_id":"88293","group":"Group2","full_date":"2025-11-29T22:29:17.861Z","date":"2025-11-29","time":"22:29:17"},{"task":"memory_phase","broad_category":"S","image_png":"S_Rock Salt_13.png","image_id":445,"category_name":"Rock Salt","category":28,"distinct_rating":7.58,"distinct_type":"Top","rt":null,"stimulus":"Stimuli_Rocks480/S_Rock Salt_13.png","response":null,"trial_type":"image-keyboard-response","trial_index":40,"plugin_version":"2.1.0","time_elapsed":327523,"subject_id":"88293","group":"Group2","full_date":"2025-11-29T22:29:17.861Z","date":"2025-11-29","time":"22:29:17"},{"rt":null,"stimulus":"<p style=\"font-size: 50px; margin: 0; text-align: center;\">+</p>","response":null,"trial_type":"html-keyboard-response","trial_index":41,"plugin_version":"2.1.0","time_elapsed":328526,"subject_id":"88293","group":"Group2","full_date":"2025-11-29T22:29:17.861Z","date":"2025-11-29","time":"22:29:17"},{"task":"memory_phase","broad_category":"I","image_png":"I_Basalt_13.png","image_id":29,"category_name":"Basalt","category":2,"distinct_rating":2.68,"distinct_type":"Bottom","rt":null,"stimulus":"Stimuli_Rocks480/I_Basalt_13.png","response":null,"trial_type":"image-keyboard-response","trial_index":42,"plugin_version":"2.1.0","time_elapsed":331029,"subject_id":"88293","group":"Group2","full_date":"2025-11-29T22:29:17.861Z","date":"2025-11-29","time":"22:29:17"},{"rt":null,"stimulus":"<p style=\"font-size: 50px; margin: 0; text-align: center;\">+</p>","response":null,"trial_type":"html-keyboard-response","trial_index":43,"plugin_version":"2.1.0","time_elapsed":332037,"subject_id":"88293","group":"Group2","full_date":"2025-11-29T22:29:17.861Z","date":"2025-11-29","time":"22:29:17"},{"task":"memory_phase","broad_category":"I","image_png":"I_Diorite_15.png","image_id":47,"category_name":"Diorite","category":3,"distinct_rating":3.05,"distinct_type":"Bottom","rt":null,"stimulus":"Stimuli_Rocks480/I_Diorite_15.png","response":null,"trial_type":"image-keyboard-response","trial_index":44,"plugin_version":"2.1.0","time_elapsed":334540,"subject_id":"88293","group":"Group2","full_date":"2025-11-29T22:29:17.861Z","date":"2025-11-29","time":"22:29:17"},{"rt":null,"stimulus":"<p style=\"font-size: 50px; margin: 0; text-align: center;\">+</p>","response":null,"trial_type":"html-keyboard-response","trial_index":45,"plugin_version":"2.1.0","time_elapsed":335542,"subject_id":"88293","group":"Group2","full_date":"2025-11-29T22:29:17.861Z","date":"2025-11-29","time":"22:29:17"},{"task":"memory_phase","broad_category":"M","image_png":"M_Gneiss_10.png","image_id":202,"category_name":"Gneiss","category":13,"distinct_rating":3.09,"distinct_type":"Bottom","rt":null,"stimulus":"Stimuli_Rocks480/M_Gneiss_10.png","response":null,"trial_type":"image-keyboard-response","trial_index":46,"plugin_version":"2.1.0","time_elapsed":338046,"subject_id":"88293","group":"Group2","full_date":"2025-11-29T22:29:17.861Z","date":"2025-11-29","time":"22:29:17"},{"rt":null,"stimulus":"<p style=\"font-size: 50px; margin: 0; text-align: center;\">+</p>","response":null,"trial_type":"html-keyboard-response","trial_index":47,"plugin_version":"2.1.0","time_elapsed":339048,"subject_id":"88293","group":"Group2","full_date":"2025-11-29T22:29:17.861Z","date":"2025-11-29","time":"22:29:17"},{"task":"memory_phase","broad_category":"M","image_png":"M_Marble_14.png","image_id":238,"category_name":"Marble","category":15,"distinct_rating":3.31,"distinct_type":"Bottom","rt":null,"stimulus":"Stimuli_Rocks480/M_Marble_14.png","response":null,"trial_type":"image-keyboard-response","trial_index":48,"plugin_version":"2.1.0","time_elapsed":341551,"subject_id":"88293","group":"Group2","full_date":"2025-11-29T22:29:17.861Z","date":"2025-11-29","time":"22:29:17"},{"rt":null,"stimulus":"<p style=\"font-size: 50px; margin: 0; text-align: center;\">+</p>","response":null,"trial_type":"html-keyboard-response","trial_index":49,"plugin_version":"2.1.0","time_elapsed":342554,"subject_id":"88293","group":"Group2","full_date":"2025-11-29T22:29:17.861Z","date":"2025-11-29","time":"22:29:17"},{"task":"memory_phase","broad_category":"I","image_png":"I_Pegmatite_03.png","image_id":99,"category_name":"Pegmatite","category":7,"distinct_rating":7.24,"distinct_type":"Top","rt":null,"stimulus":"Stimuli_Rocks480/I_Pegmatite_03.png","response":null,"trial_type":"image-keyboard-response","trial_index":50,"plugin_version":"2.1.0","time_elapsed":345058,"subject_id":"88293","group":"Group2","full_date":"2025-11-29T22:29:17.861Z","date":"2025-11-29","time":"22:29:17"},{"rt":null,"stimulus":"<p style=\"font-size: 50px; margin: 0; text-align: center;\">+</p>","response":null,"trial_type":"html-keyboard-response","trial_index":51,"plugin_version":"2.1.0","time_elapsed":346060,"subject_id":"88293","group":"Group2","full_date":"2025-11-29T22:29:17.861Z","date":"2025-11-29","time":"22:29:17"},{"task":"memory_phase","broad_category":"S","image_png":"S_Shale_07.png","image_id":471,"category_name":"Shale","category":30,"distinct_rating":2.73,"distinct_type":"Bottom","rt":null,"stimulus":"Stimuli_Rocks480/S_Shale_07.png","response":null,"trial_type":"image-keyboard-response","trial_index":52,"plugin_version":"2.1.0","time_elapsed":348564,"subject_id":"88293","group":"Group2","full_date":"2025-11-29T22:29:17.861Z","date":"2025-11-29","time":"22:29:17"},{"rt":null,"stimulus":"<p style=\"font-size: 50px; margin: 0; text-align: center;\">+</p>","response":null,"trial_type":"html-keyboard-response","trial_index":53,"plugin_version":"2.1.0","time_elapsed":349566,"subject_id":"88293","group":"Group2","full_date":"2025-11-29T22:29:17.861Z","date":"2025-11-29","time":"22:29:17"},{"task":"memory_phase","broad_category":"I","image_png":"I_Rhyolite_05.png","image_id":149,"category_name":"Rhyolite","category":10,"distinct_rating":3.02,"distinct_type":"Bottom","rt":null,"stimulus":"Stimuli_Rocks480/I_Rhyolite_05.png","response":null,"trial_type":"image-keyboard-response","trial_index":54,"plugin_version":"2.1.0","time_elapsed":352070,"subject_id":"88293","group":"Group2","full_date":"2025-11-29T22:29:17.861Z","date":"2025-11-29","time":"22:29:17"},{"rt":9581,"stimulus":"<p style=\"max-width: 760px; margin: auto; font-size: 35px; line-height: 1.5;\">Press SPACE to continue study phase</p>","response":" ","trial_type":"html-keyboard-response","trial_index":55,"plugin_version":"2.1.0","time_elapsed":361653,"subject_id":"88293","group":"Group2","full_date":"2025-11-29T22:29:17.861Z","date":"2025-11-29","time":"22:29:17"},{"rt":null,"stimulus":"<p style=\"font-size: 50px; margin: 0; text-align: center;\">+</p>","response":null,"trial_type":"html-keyboard-response","trial_index":56,"plugin_version":"2.1.0","time_elapsed":362655,"subject_id":"88293","group":"Group2","full_date":"2025-11-29T22:29:17.861Z","date":"2025-11-29","time":"22:29:17"},{"task":"memory_phase","broad_category":"I","image_png":"I_Gabbro_14.png","image_id":62,"category_name":"Gabbro","category":4,"distinct_rating":2.95,"distinct_type":"Bottom","rt":null,"stimulus":"Stimuli_Rocks480/I_Gabbro_14.png","response":null,"trial_type":"image-keyboard-response","trial_index":57,"plugin_version":"2.1.0","time_elapsed":365158,"subject_id":"88293","group":"Group2","full_date":"2025-11-29T22:29:17.861Z","date":"2025-11-29","time":"22:29:17"},{"rt":null,"stimulus":"<p style=\"font-size: 50px; margin: 0; text-align: center;\">+</p>","response":null,"trial_type":"html-keyboard-response","trial_index":58,"plugin_version":"2.1.0","time_elapsed":366161,"subject_id":"88293","group":"Group2","full_date":"2025-11-29T22:29:17.861Z","date":"2025-11-29","time":"22:29:17"},{"task":"memory_phase","broad_category":"M","image_png":"M_Quartzite_15.png","image_id":287,"category_name":"Quartzite","category":18,"distinct_rating":2.19,"distinct_type":"Bottom","rt":null,"stimulus":"Stimuli_Rocks480/M_Quartzite_15.png","response":null,"trial_type":"image-keyboard-response","trial_index":59,"plugin_version":"2.1.0","time_elapsed":368665,"subject_id":"88293","group":"Group2","full_date":"2025-11-29T22:29:17.861Z","date":"2025-11-29","time":"22:29:17"},{"rt":null,"stimulus":"<p style=\"font-size: 50px; margin: 0; text-align: center;\">+</p>","response":null,"trial_type":"html-keyboard-response","trial_index":60,"plugin_version":"2.1.0","time_elapsed":369667,"subject_id":"88293","group":"Group2","full_date":"2025-11-29T22:29:17.861Z","date":"2025-11-29","time":"22:29:17"},{"task":"memory_phase","broad_category":"M","image_png":"M_Phyllite_02.png","image_id":258,"category_name":"Phyllite","category":17,"distinct_rating":2.89,"distinct_type":"Bottom","rt":null,"stimulus":"Stimuli_Rocks480/M_Phyllite_02.png","response":null,"trial_type":"image-keyboard-response","trial_index":61,"plugin_version":"2.1.0","time_elapsed":372170,"subject_id":"88293","group":"Group2","full_date":"2025-11-29T22:29:17.861Z","date":"2025-11-29","time":"22:29:17"},{"rt":null,"stimulus":"<p style=\"font-size: 50px; margin: 0; text-align: center;\">+</p>","response":null,"trial_type":"html-keyboard-response","trial_index":62,"plugin_version":"2.1.0","time_elapsed":373172,"subject_id":"88293","group":"Group2","full_date":"2025-11-29T22:29:17.861Z","date":"2025-11-29","time":"22:29:17"},{"task":"memory_phase","broad_category":"M","image_png":"M_Marble_02.png","image_id":226,"category_name":"Marble","category":15,"distinct_rating":3.2,"distinct_type":"Bottom","rt":null,"stimulus":"Stimuli_Rocks480/M_Marble_02.png","response":null,"trial_type":"image-keyboard-response","trial_index":63,"plugin_version":"2.1.0","time_elapsed":375675,"subject_id":"88293","group":"Group2","full_date":"2025-11-29T22:29:17.861Z","date":"2025-11-29","time":"22:29:17"},{"rt":null,"stimulus":"<p style=\"font-size: 50px; margin: 0; text-align: center;\">+</p>","response":null,"trial_type":"html-keyboard-response","trial_index":64,"plugin_version":"2.1.0","time_elapsed":376678,"subject_id":"88293","group":"Group2","full_date":"2025-11-29T22:29:17.861Z","date":"2025-11-29","time":"22:29:17"},{"task":"memory_phase","broad_category":"S","image_png":"S_Shale_03.png","image_id":467,"category_name":"Shale","category":30,"distinct_rating":1.95,"distinct_type":"Bottom","rt":null,"stimulus":"Stimuli_Rocks480/S_Shale_03.png","response":null,"trial_type":"image-keyboard-response","trial_index":65,"plugin_version":"2.1.0","time_elapsed":379181,"subject_id":"88293","group":"Group2","full_date":"2025-11-29T22:29:17.861Z","date":"2025-11-29","time":"22:29:17"},{"rt":null,"stimulus":"<p style=\"font-size: 50px; margin: 0; text-align: center;\">+</p>","response":null,"trial_type":"html-keyboard-response","trial_index":66,"plugin_version":"2.1.0","time_elapsed":380183,"subject_id":"88293","group":"Group2","full_date":"2025-11-29T22:29:17.861Z","date":"2025-11-29","time":"22:29:17"},{"task":"memory_phase","broad_category":"I","image_png":"I_Diorite_01.png","image_id":33,"category_name":"Diorite","category":3,"distinct_rating":2.97,"distinct_type":"Bottom","rt":null,"stimulus":"Stimuli_Rocks480/I_Diorite_01.png","response":null,"trial_type":"image-keyboard-response","trial_index":67,"plugin_version":"2.1.0","time_elapsed":382687,"subject_id":"88293","group":"Group2","full_date":"2025-11-29T22:29:17.861Z","date":"2025-11-29","time":"22:29:17"},{"rt":null,"stimulus":"<p style=\"font-size: 50px; margin: 0; text-align: center;\">+</p>","response":null,"trial_type":"html-keyboard-response","trial_index":68,"plugin_version":"2.1.0","time_elapsed":383689,"subject_id":"88293","group":"Group2","full_date":"2025-11-29T22:29:17.861Z","date":"2025-11-29","time":"22:29:17"},{"task":"memory_phase","broad_category":"I","image_png":"I_Obsidian_06.png","image_id":86,"category_name":"Obsidian","category":6,"distinct_rating":8.01,"distinct_type":"Top","rt":null,"stimulus":"Stimuli_Rocks480/I_Obsidian_06.png","response":null,"trial_type":"image-keyboard-response","trial_index":69,"plugin_version":"2.1.0","time_elapsed":386193,"subject_id":"88293","group":"Group2","full_date":"2025-11-29T22:29:17.861Z","date":"2025-11-29","time":"22:29:17"},{"rt":null,"stimulus":"<p style=\"font-size: 50px; margin: 0; text-align: center;\">+</p>","response":null,"trial_type":"html-keyboard-response","trial_index":70,"plugin_version":"2.1.0","time_elapsed":387196,"subject_id":"88293","group":"Group2","full_date":"2025-11-29T22:29:17.861Z","date":"2025-11-29","time":"22:29:17"},{"task":"memory_phase","broad_category":"I","image_png":"I_Basalt_10.png","image_id":26,"category_name":"Basalt","category":2,"distinct_rating":2.76,"distinct_type":"Bottom","rt":null,"stimulus":"Stimuli_Rocks480/I_Basalt_10.png","response":null,"trial_type":"image-keyboard-response","trial_index":71,"plugin_version":"2.1.0","time_elapsed":389699,"subject_id":"88293","group":"Group2","full_date":"2025-11-29T22:29:17.861Z","date":"2025-11-29","time":"22:29:17"},{"rt":null,"stimulus":"<p style=\"font-size: 50px; margin: 0; text-align: center;\">+</p>","response":null,"trial_type":"html-keyboard-response","trial_index":72,"plugin_version":"2.1.0","time_elapsed":390701,"subject_id":"88293","group":"Group2","full_date":"2025-11-29T22:29:17.861Z","date":"2025-11-29","time":"22:29:17"},{"task":"memory_phase","broad_category":"I","image_png":"I_Pumice_01.png","image_id":129,"category_name":"Pumice","category":9,"distinct_rating":3.25,"distinct_type":"Bottom","rt":null,"stimulus":"Stimuli_Rocks480/I_Pumice_01.png","response":null,"trial_type":"image-keyboard-response","trial_index":73,"plugin_version":"2.1.0","time_elapsed":393204,"subject_id":"88293","group":"Group2","full_date":"2025-11-29T22:29:17.861Z","date":"2025-11-29","time":"22:29:17"},{"rt":null,"stimulus":"<p style=\"font-size: 50px; margin: 0; text-align: center;\">+</p>","response":null,"trial_type":"html-keyboard-response","trial_index":74,"plugin_version":"2.1.0","time_elapsed":394206,"subject_id":"88293","group":"Group2","full_date":"2025-11-29T22:29:17.861Z","date":"2025-11-29","time":"22:29:17"},{"task":"memory_phase","broad_category":"I","image_png":"I_Pumice_13.png","image_id":141,"category_name":"Pumice","category":9,"distinct_rating":3.12,"distinct_type":"Bottom","rt":null,"stimulus":"Stimuli_Rocks480/I_Pumice_13.png","response":null,"trial_type":"image-keyboard-response","trial_index":75,"plugin_version":"2.1.0","time_elapsed":396709,"subject_id":"88293","group":"Group2","full_date":"2025-11-29T22:29:17.861Z","date":"2025-11-29","time":"22:29:17"},{"rt":null,"stimulus":"<p style=\"font-size: 50px; margin: 0; text-align: center;\">+</p>","response":null,"trial_type":"html-keyboard-response","trial_index":76,"plugin_version":"2.1.0","time_elapsed":397712,"subject_id":"88293","group":"Group2","full_date":"2025-11-29T22:29:17.861Z","date":"2025-11-29","time":"22:29:17"},{"task":"memory_phase","broad_category":"I","image_png":"I_Diorite_10.png","image_id":42,"category_name":"Diorite","category":3,"distinct_rating":2.84,"distinct_type":"Bottom","rt":null,"stimulus":"Stimuli_Rocks480/I_Diorite_10.png","response":null,"trial_type":"image-keyboard-response","trial_index":77,"plugin_version":"2.1.0","time_elapsed":400215,"subject_id":"88293","group":"Group2","full_date":"2025-11-29T22:29:17.861Z","date":"2025-11-29","time":"22:29:17"},{"rt":null,"stimulus":"<p style=\"font-size: 50px; margin: 0; text-align: center;\">+</p>","response":null,"trial_type":"html-keyboard-response","trial_index":78,"plugin_version":"2.1.0","time_elapsed":401218,"subject_id":"88293","group":"Group2","full_date":"2025-11-29T22:29:17.861Z","date":"2025-11-29","time":"22:29:17"},{"task":"memory_phase","broad_category":"I","image_png":"I_Andesite_09.png","image_id":9,"category_name":"Andesite","category":1,"distinct_rating":2.49,"distinct_type":"Bottom","rt":null,"stimulus":"Stimuli_Rocks480/I_Andesite_09.png","response":null,"trial_type":"image-keyboard-response","trial_index":79,"plugin_version":"2.1.0","time_elapsed":403722,"subject_id":"88293","group":"Group2","full_date":"2025-11-29T22:29:17.861Z","date":"2025-11-29","time":"22:29:17"},{"rt":null,"stimulus":"<p style=\"font-size: 50px; margin: 0; text-align: center;\">+</p>","response":null,"trial_type":"html-keyboard-response","trial_index":80,"plugin_version":"2.1.0","time_elapsed":404724,"subject_id":"88293","group":"Group2","full_date":"2025-11-29T22:29:17.861Z","date":"2025-11-29","time":"22:29:17"},{"task":"memory_phase","broad_category":"M","image_png":"M_Slate_04.png","image_id":308,"category_name":"Slate","category":20,"distinct_rating":2.2,"distinct_type":"Bottom","rt":null,"stimulus":"Stimuli_Rocks480/M_Slate_04.png","response":null,"trial_type":"image-keyboard-response","trial_index":81,"plugin_version":"2.1.0","time_elapsed":407227,"subject_id":"88293","group":"Group2","full_date":"2025-11-29T22:29:17.861Z","date":"2025-11-29","time":"22:29:17"},{"rt":null,"stimulus":"<p style=\"font-size: 50px; margin: 0; text-align: center;\">+</p>","response":null,"trial_type":"html-keyboard-response","trial_index":82,"plugin_version":"2.1.0","time_elapsed":408230,"subject_id":"88293","group":"Group2","full_date":"2025-11-29T22:29:17.861Z","date":"2025-11-29","time":"22:29:17"},{"task":"memory_phase","broad_category":"I","image_png":"I_Basalt_08.png","image_id":24,"category_name":"Basalt","category":2,"distinct_rating":2.31,"distinct_type":"Bottom","rt":null,"stimulus":"Stimuli_Rocks480/I_Basalt_08.png","response":null,"trial_type":"image-keyboard-response","trial_index":83,"plugin_version":"2.1.0","time_elapsed":410733,"subject_id":"88293","group":"Group2","full_date":"2025-11-29T22:29:17.861Z","date":"2025-11-29","time":"22:29:17"},{"rt":null,"stimulus":"<p style=\"font-size: 50px; margin: 0; text-align: center;\">+</p>","response":null,"trial_type":"html-keyboard-response","trial_index":84,"plugin_version":"2.1.0","time_elapsed":411735,"subject_id":"88293","group":"Group2","full_date":"2025-11-29T22:29:17.861Z","date":"2025-11-29","time":"22:29:17"},{"task":"memory_phase","broad_category":"S","image_png":"S_Chert_13.png","image_id":365,"category_name":"Chert","category":23,"distinct_rating":6.57,"distinct_type":"Top","rt":null,"stimulus":"Stimuli_Rocks480/S_Chert_13.png","response":null,"trial_type":"image-keyboard-response","trial_index":85,"plugin_version":"2.1.0","time_elapsed":414238,"subject_id":"88293","group":"Group2","full_date":"2025-11-29T22:29:17.861Z","date":"2025-11-29","time":"22:29:17"},{"rt":null,"stimulus":"<p style=\"font-size: 50px; margin: 0; text-align: center;\">+</p>","response":null,"trial_type":"html-keyboard-response","trial_index":86,"plugin_version":"2.1.0","time_elapsed":415241,"subject_id":"88293","group":"Group2","full_date":"2025-11-29T22:29:17.861Z","date":"2025-11-29","time":"22:29:17"},{"task":"memory_phase","broad_category":"I","image_png":"I_Andesite_03.png","image_id":3,"category_name":"Andesite","category":1,"distinct_rating":3.17,"distinct_type":"Bottom","rt":null,"stimulus":"Stimuli_Rocks480/I_Andesite_03.png","response":null,"trial_type":"image-keyboard-response","trial_index":87,"plugin_version":"2.1.0","time_elapsed":417745,"subject_id":"88293","group":"Group2","full_date":"2025-11-29T22:29:17.861Z","date":"2025-11-29","time":"22:29:17"},{"rt":null,"stimulus":"<p style=\"font-size: 50px; margin: 0; text-align: center;\">+</p>","response":null,"trial_type":"html-keyboard-response","trial_index":88,"plugin_version":"2.1.0","time_elapsed":418747,"subject_id":"88293","group":"Group2","full_date":"2025-11-29T22:29:17.861Z","date":"2025-11-29","time":"22:29:17"},{"task":"memory_phase","broad_category":"S","image_png":"S_Conglomerate_14.png","image_id":382,"category_name":"Conglomerate","category":24,"distinct_rating":6.86,"distinct_type":"Top","rt":null,"stimulus":"Stimuli_Rocks480/S_Conglomerate_14.png","response":null,"trial_type":"image-keyboard-response","trial_index":89,"plugin_version":"2.1.0","time_elapsed":421251,"subject_id":"88293","group":"Group2","full_date":"2025-11-29T22:29:17.861Z","date":"2025-11-29","time":"22:29:17"},{"rt":null,"stimulus":"<p style=\"font-size: 50px; margin: 0; text-align: center;\">+</p>","response":null,"trial_type":"html-keyboard-response","trial_index":90,"plugin_version":"2.1.0","time_elapsed":422253,"subject_id":"88293","group":"Group2","full_date":"2025-11-29T22:29:17.861Z","date":"2025-11-29","time":"22:29:17"},{"task":"memory_phase","broad_category":"I","image_png":"I_Rhyolite_08.png","image_id":152,"category_name":"Rhyolite","category":10,"distinct_rating":1.38,"distinct_type":"Bottom","rt":null,"stimulus":"Stimuli_Rocks480/I_Rhyolite_08.png","response":null,"trial_type":"image-keyboard-response","trial_index":91,"plugin_version":"2.1.0","time_elapsed":424756,"subject_id":"88293","group":"Group2","full_date":"2025-11-29T22:29:17.861Z","date":"2025-11-29","time":"22:29:17"},{"rt":null,"stimulus":"<p style=\"font-size: 50px; margin: 0; text-align: center;\">+</p>","response":null,"trial_type":"html-keyboard-response","trial_index":92,"plugin_version":"2.1.0","time_elapsed":425759,"subject_id":"88293","group":"Group2","full_date":"2025-11-29T22:29:17.861Z","date":"2025-11-29","time":"22:29:17"},{"task":"memory_phase","broad_category":"S","image_png":"S_Sandstone_11.png","image_id":459,"category_name":"Sandstone","category":29,"distinct_rating":1.82,"distinct_type":"Bottom","rt":null,"stimulus":"Stimuli_Rocks480/S_Sandstone_11.png","response":null,"trial_type":"image-keyboard-response","trial_index":93,"plugin_version":"2.1.0","time_elapsed":428262,"subject_id":"88293","group":"Group2","full_date":"2025-11-29T22:29:17.861Z","date":"2025-11-29","time":"22:29:17"},{"rt":null,"stimulus":"<p style=\"font-size: 50px; margin: 0; text-align: center;\">+</p>","response":null,"trial_type":"html-keyboard-response","trial_index":94,"plugin_version":"2.1.0","time_elapsed":429264,"subject_id":"88293","group":"Group2","full_date":"2025-11-29T22:29:17.861Z","date":"2025-11-29","time":"22:29:17"},{"task":"memory_phase","broad_category":"I","image_png":"I_Pegmatite_11.png","image_id":107,"category_name":"Pegmatite","category":7,"distinct_rating":7.11,"distinct_type":"Top","rt":null,"stimulus":"Stimuli_Rocks480/I_Pegmatite_11.png","response":null,"trial_type":"image-keyboard-response","trial_index":95,"plugin_version":"2.1.0","time_elapsed":431768,"subject_id":"88293","group":"Group2","full_date":"2025-11-29T22:29:17.861Z","date":"2025-11-29","time":"22:29:17"},{"rt":null,"stimulus":"<p style=\"font-size: 50px; margin: 0; text-align: center;\">+</p>","response":null,"trial_type":"html-keyboard-response","trial_index":96,"plugin_version":"2.1.0","time_elapsed":432770,"subject_id":"88293","group":"Group2","full_date":"2025-11-29T22:29:17.861Z","date":"2025-11-29","time":"22:29:17"},{"task":"memory_phase","broad_category":"I","image_png":"I_Pumice_14.png","image_id":142,"category_name":"Pumice","category":9,"distinct_rating":3.22,"distinct_type":"Bottom","rt":null,"stimulus":"Stimuli_Rocks480/I_Pumice_14.png","response":null,"trial_type":"image-keyboard-response","trial_index":97,"plugin_version":"2.1.0","time_elapsed":435274,"subject_id":"88293","group":"Group2","full_date":"2025-11-29T22:29:17.861Z","date":"2025-11-29","time":"22:29:17"},{"rt":null,"stimulus":"<p style=\"font-size: 50px; margin: 0; text-align: center;\">+</p>","response":null,"trial_type":"html-keyboard-response","trial_index":98,"plugin_version":"2.1.0","time_elapsed":436276,"subject_id":"88293","group":"Group2","full_date":"2025-11-29T22:29:17.861Z","date":"2025-11-29","time":"22:29:17"},{"task":"memory_phase","broad_category":"M","image_png":"M_Phyllite_05.png","image_id":261,"category_name":"Phyllite","category":17,"distinct_rating":2.14,"distinct_type":"Bottom","rt":null,"stimulus":"Stimuli_Rocks480/M_Phyllite_05.png","response":null,"trial_type":"image-keyboard-response","trial_index":99,"plugin_version":"2.1.0","time_elapsed":438779,"subject_id":"88293","group":"Group2","full_date":"2025-11-29T22:29:17.861Z","date":"2025-11-29","time":"22:29:17"},{"rt":null,"stimulus":"<p style=\"font-size: 50px; margin: 0; text-align: center;\">+</p>","response":null,"trial_type":"html-keyboard-response","trial_index":100,"plugin_version":"2.1.0","time_elapsed":439782,"subject_id":"88293","group":"Group2","full_date":"2025-11-29T22:29:17.861Z","date":"2025-11-29","time":"22:29:17"},{"task":"memory_phase","broad_category":"I","image_png":"I_Gabbro_02.png","image_id":50,"category_name":"Gabbro","category":4,"distinct_rating":2.73,"distinct_type":"Bottom","rt":null,"stimulus":"Stimuli_Rocks480/I_Gabbro_02.png","response":null,"trial_type":"image-keyboard-response","trial_index":101,"plugin_version":"2.1.0","time_elapsed":442286,"subject_id":"88293","group":"Group2","full_date":"2025-11-29T22:29:17.861Z","date":"2025-11-29","time":"22:29:17"},{"rt":null,"stimulus":"<p style=\"font-size: 50px; margin: 0; text-align: center;\">+</p>","response":null,"trial_type":"html-keyboard-response","trial_index":102,"plugin_version":"2.1.0","time_elapsed":443288,"subject_id":"88293","group":"Group2","full_date":"2025-11-29T22:29:17.861Z","date":"2025-11-29","time":"22:29:17"},{"task":"memory_phase","broad_category":"M","image_png":"M_Slate_14.png","image_id":318,"category_name":"Slate","category":20,"distinct_rating":2.58,"distinct_type":"Bottom","rt":null,"stimulus":"Stimuli_Rocks480/M_Slate_14.png","response":null,"trial_type":"image-keyboard-response","trial_index":103,"plugin_version":"2.1.0","time_elapsed":445791,"subject_id":"88293","group":"Group2","full_date":"2025-11-29T22:29:17.861Z","date":"2025-11-29","time":"22:29:17"},{"rt":null,"stimulus":"<p style=\"font-size: 50px; margin: 0; text-align: center;\">+</p>","response":null,"trial_type":"html-keyboard-response","trial_index":104,"plugin_version":"2.1.0","time_elapsed":446794,"subject_id":"88293","group":"Group2","full_date":"2025-11-29T22:29:17.861Z","date":"2025-11-29","time":"22:29:17"},{"task":"memory_phase","broad_category":"M","image_png":"M_Slate_10.png","image_id":314,"category_name":"Slate","category":20,"distinct_rating":1.94,"distinct_type":"Bottom","rt":null,"stimulus":"Stimuli_Rocks480/M_Slate_10.png","response":null,"trial_type":"image-keyboard-response","trial_index":105,"plugin_version":"2.1.0","time_elapsed":449297,"subject_id":"88293","group":"Group2","full_date":"2025-11-29T22:29:17.861Z","date":"2025-11-29","time":"22:29:17"},{"rt":21452,"stimulus":"<p style=\"max-width: 760px; margin: auto; font-size: 35px; line-height: 1.5;\">You have completed 1 study phase. Now, we'll show you all the images again 2 more times.<br><br>Press SPACE to continue</p>","response":" ","trial_type":"html-keyboard-response","trial_index":106,"plugin_version":"2.1.0","time_elapsed":470750,"subject_id":"88293","group":"Group2","full_date":"2025-11-29T22:29:17.861Z","date":"2025-11-29","time":"22:29:17"},{"rt":null,"stimulus":"<p style=\"font-size: 50px; margin: 0; text-align: center;\">+</p>","response":null,"trial_type":"html-keyboard-response","trial_index":107,"plugin_version":"2.1.0","time_elapsed":471752,"subject_id":"88293","group":"Group2","full_date":"2025-11-29T22:29:17.861Z","date":"2025-11-29","time":"22:29:17"},{"task":"memory_phase","broad_category":"I","image_png":"I_Peridotite_13.png","image_id":125,"category_name":"Peridotite","category":8,"distinct_rating":7.28,"distinct_type":"Top","rt":null,"stimulus":"Stimuli_Rocks480/I_Peridotite_13.png","response":null,"trial_type":"image-keyboard-response","trial_index":108,"plugin_version":"2.1.0","time_elapsed":474255,"subject_id":"88293","group":"Group2","full_date":"2025-11-29T22:29:17.861Z","date":"2025-11-29","time":"22:29:17"},{"rt":null,"stimulus":"<p style=\"font-size: 50px; margin: 0; text-align: center;\">+</p>","response":null,"trial_type":"html-keyboard-response","trial_index":109,"plugin_version":"2.1.0","time_elapsed":475257,"subject_id":"88293","group":"Group2","full_date":"2025-11-29T22:29:17.861Z","date":"2025-11-29","time":"22:29:17"},{"task":"memory_phase","broad_category":"M","image_png":"M_Phyllite_13.png","image_id":269,"category_name":"Phyllite","category":17,"distinct_rating":2.8,"distinct_type":"Bottom","rt":null,"stimulus":"Stimuli_Rocks480/M_Phyllite_13.png","response":null,"trial_type":"image-keyboard-response","trial_index":110,"plugin_version":"2.1.0","time_elapsed":477760,"subject_id":"88293","group":"Group2","full_date":"2025-11-29T22:29:17.861Z","date":"2025-11-29","time":"22:29:17"},{"rt":null,"stimulus":"<p style=\"font-size: 50px; margin: 0; text-align: center;\">+</p>","response":null,"trial_type":"html-keyboard-response","trial_index":111,"plugin_version":"2.1.0","time_elapsed":478763,"subject_id":"88293","group":"Group2","full_date":"2025-11-29T22:29:17.861Z","date":"2025-11-29","time":"22:29:17"},{"task":"memory_phase","broad_category":"S","image_png":"S_Rock Salt_13.png","image_id":445,"category_name":"Rock Salt","category":28,"distinct_rating":7.58,"distinct_type":"Top","rt":null,"stimulus":"Stimuli_Rocks480/S_Rock Salt_13.png","response":null,"trial_type":"image-keyboard-response","trial_index":112,"plugin_version":"2.1.0","time_elapsed":481267,"subject_id":"88293","group":"Group2","full_date":"2025-11-29T22:29:17.861Z","date":"2025-11-29","time":"22:29:17"},{"rt":null,"stimulus":"<p style=\"font-size: 50px; margin: 0; text-align: center;\">+</p>","response":null,"trial_type":"html-keyboard-response","trial_index":113,"plugin_version":"2.1.0","time_elapsed":482269,"subject_id":"88293","group":"Group2","full_date":"2025-11-29T22:29:17.861Z","date":"2025-11-29","time":"22:29:17"},{"task":"memory_phase","broad_category":"S","image_png":"S_Rock Salt_15.png","image_id":447,"category_name":"Rock Salt","category":28,"distinct_rating":7.79,"distinct_type":"Top","rt":null,"stimulus":"Stimuli_Rocks480/S_Rock Salt_15.png","response":null,"trial_type":"image-keyboard-response","trial_index":114,"plugin_version":"2.1.0","time_elapsed":484772,"subject_id":"88293","group":"Group2","full_date":"2025-11-29T22:29:17.861Z","date":"2025-11-29","time":"22:29:17"},{"rt":null,"stimulus":"<p style=\"font-size: 50px; margin: 0; text-align: center;\">+</p>","response":null,"trial_type":"html-keyboard-response","trial_index":115,"plugin_version":"2.1.0","time_elapsed":485775,"subject_id":"88293","group":"Group2","full_date":"2025-11-29T22:29:17.861Z","date":"2025-11-29","time":"22:29:17"},{"task":"memory_phase","broad_category":"I","image_png":"I_Rhyolite_08.png","image_id":152,"category_name":"Rhyolite","category":10,"distinct_rating":1.38,"distinct_type":"Bottom","rt":null,"stimulus":"Stimuli_Rocks480/I_Rhyolite_08.png","response":null,"trial_type":"image-keyboard-response","trial_index":116,"plugin_version":"2.1.0","time_elapsed":488278,"subject_id":"88293","group":"Group2","full_date":"2025-11-29T22:29:17.861Z","date":"2025-11-29","time":"22:29:17"},{"rt":null,"stimulus":"<p style=\"font-size: 50px; margin: 0; text-align: center;\">+</p>","response":null,"trial_type":"html-keyboard-response","trial_index":117,"plugin_version":"2.1.0","time_elapsed":489281,"subject_id":"88293","group":"Group2","full_date":"2025-11-29T22:29:17.861Z","date":"2025-11-29","time":"22:29:17"},{"task":"memory_phase","broad_category":"S","image_png":"S_Sandstone_08.png","image_id":456,"category_name":"Sandstone","category":29,"distinct_rating":1.5,"distinct_type":"Bottom","rt":null,"stimulus":"Stimuli_Rocks480/S_Sandstone_08.png","response":null,"trial_type":"image-keyboard-response","trial_index":118,"plugin_version":"2.1.0","time_elapsed":491784,"subject_id":"88293","group":"Group2","full_date":"2025-11-29T22:29:17.861Z","date":"2025-11-29","time":"22:29:17"},{"rt":null,"stimulus":"<p style=\"font-size: 50px; margin: 0; text-align: center;\">+</p>","response":null,"trial_type":"html-keyboard-response","trial_index":119,"plugin_version":"2.1.0","time_elapsed":492787,"subject_id":"88293","group":"Group2","full_date":"2025-11-29T22:29:17.861Z","date":"2025-11-29","time":"22:29:17"},{"task":"memory_phase","broad_category":"I","image_png":"I_Diorite_01.png","image_id":33,"category_name":"Diorite","category":3,"distinct_rating":2.97,"distinct_type":"Bottom","rt":null,"stimulus":"Stimuli_Rocks480/I_Diorite_01.png","response":null,"trial_type":"image-keyboard-response","trial_index":120,"plugin_version":"2.1.0","time_elapsed":495290,"subject_id":"88293","group":"Group2","full_date":"2025-11-29T22:29:17.861Z","date":"2025-11-29","time":"22:29:17"},{"rt":null,"stimulus":"<p style=\"font-size: 50px; margin: 0; text-align: center;\">+</p>","response":null,"trial_type":"html-keyboard-response","trial_index":121,"plugin_version":"2.1.0","time_elapsed":496292,"subject_id":"88293","group":"Group2","full_date":"2025-11-29T22:29:17.861Z","date":"2025-11-29","time":"22:29:17"},{"task":"memory_phase","broad_category":"I","image_png":"I_Andesite_03.png","image_id":3,"category_name":"Andesite","category":1,"distinct_rating":3.17,"distinct_type":"Bottom","rt":null,"stimulus":"Stimuli_Rocks480/I_Andesite_03.png","response":null,"trial_type":"image-keyboard-response","trial_index":122,"plugin_version":"2.1.0","time_elapsed":498796,"subject_id":"88293","group":"Group2","full_date":"2025-11-29T22:29:17.861Z","date":"2025-11-29","time":"22:29:17"},{"rt":null,"stimulus":"<p style=\"font-size: 50px; margin: 0; text-align: center;\">+</p>","response":null,"trial_type":"html-keyboard-response","trial_index":123,"plugin_version":"2.1.0","time_elapsed":499798,"subject_id":"88293","group":"Group2","full_date":"2025-11-29T22:29:17.861Z","date":"2025-11-29","time":"22:29:17"},{"task":"memory_phase","broad_category":"M","image_png":"M_Gneiss_14.png","image_id":206,"category_name":"Gneiss","category":13,"distinct_rating":3.41,"distinct_type":"Bottom","rt":null,"stimulus":"Stimuli_Rocks480/M_Gneiss_14.png","response":null,"trial_type":"image-keyboard-response","trial_index":124,"plugin_version":"2.1.0","time_elapsed":502301,"subject_id":"88293","group":"Group2","full_date":"2025-11-29T22:29:17.861Z","date":"2025-11-29","time":"22:29:17"},{"rt":null,"stimulus":"<p style=\"font-size: 50px; margin: 0; text-align: center;\">+</p>","response":null,"trial_type":"html-keyboard-response","trial_index":125,"plugin_version":"2.1.0","time_elapsed":503304,"subject_id":"88293","group":"Group2","full_date":"2025-11-29T22:29:17.861Z","date":"2025-11-29","time":"22:29:17"},{"task":"memory_phase","broad_category":"I","image_png":"I_Basalt_13.png","image_id":29,"category_name":"Basalt","category":2,"distinct_rating":2.68,"distinct_type":"Bottom","rt":null,"stimulus":"Stimuli_Rocks480/I_Basalt_13.png","response":null,"trial_type":"image-keyboard-response","trial_index":126,"plugin_version":"2.1.0","time_elapsed":505807,"subject_id":"88293","group":"Group2","full_date":"2025-11-29T22:29:17.861Z","date":"2025-11-29","time":"22:29:17"},{"rt":null,"stimulus":"<p style=\"font-size: 50px; margin: 0; text-align: center;\">+</p>","response":null,"trial_type":"html-keyboard-response","trial_index":127,"plugin_version":"2.1.0","time_elapsed":506810,"subject_id":"88293","group":"Group2","full_date":"2025-11-29T22:29:17.861Z","date":"2025-11-29","time":"22:29:17"},{"task":"memory_phase","broad_category":"I","image_png":"I_Diorite_10.png","image_id":42,"category_name":"Diorite","category":3,"distinct_rating":2.84,"distinct_type":"Bottom","rt":null,"stimulus":"Stimuli_Rocks480/I_Diorite_10.png","response":null,"trial_type":"image-keyboard-response","trial_index":128,"plugin_version":"2.1.0","time_elapsed":509313,"subject_id":"88293","group":"Group2","full_date":"2025-11-29T22:29:17.861Z","date":"2025-11-29","time":"22:29:17"},{"rt":null,"stimulus":"<p style=\"font-size: 50px; margin: 0; text-align: center;\">+</p>","response":null,"trial_type":"html-keyboard-response","trial_index":129,"plugin_version":"2.1.0","time_elapsed":510315,"subject_id":"88293","group":"Group2","full_date":"2025-11-29T22:29:17.861Z","date":"2025-11-29","time":"22:29:17"},{"task":"memory_phase","broad_category":"S","image_png":"S_Dolomite_16.png","image_id":400,"category_name":"Dolomite","category":25,"distinct_rating":1.71,"distinct_type":"Bottom","rt":null,"stimulus":"Stimuli_Rocks480/S_Dolomite_16.png","response":null,"trial_type":"image-keyboard-response","trial_index":130,"plugin_version":"2.1.0","time_elapsed":512818,"subject_id":"88293","group":"Group2","full_date":"2025-11-29T22:29:17.861Z","date":"2025-11-29","time":"22:29:17"},{"rt":null,"stimulus":"<p style=\"font-size: 50px; margin: 0; text-align: center;\">+</p>","response":null,"trial_type":"html-keyboard-response","trial_index":131,"plugin_version":"2.1.0","time_elapsed":513821,"subject_id":"88293","group":"Group2","full_date":"2025-11-29T22:29:17.861Z","date":"2025-11-29","time":"22:29:17"},{"task":"memory_phase","broad_category":"I","image_png":"I_Andesite_04.png","image_id":4,"category_name":"Andesite","category":1,"distinct_rating":3.18,"distinct_type":"Bottom","rt":null,"stimulus":"Stimuli_Rocks480/I_Andesite_04.png","response":null,"trial_type":"image-keyboard-response","trial_index":132,"plugin_version":"2.1.0","time_elapsed":516324,"subject_id":"88293","group":"Group2","full_date":"2025-11-29T22:29:17.861Z","date":"2025-11-29","time":"22:29:17"},{"rt":null,"stimulus":"<p style=\"font-size: 50px; margin: 0; text-align: center;\">+</p>","response":null,"trial_type":"html-keyboard-response","trial_index":133,"plugin_version":"2.1.0","time_elapsed":517326,"subject_id":"88293","group":"Group2","full_date":"2025-11-29T22:29:17.861Z","date":"2025-11-29","time":"22:29:17"},{"task":"memory_phase","broad_category":"M","image_png":"M_Slate_04.png","image_id":308,"category_name":"Slate","category":20,"distinct_rating":2.2,"distinct_type":"Bottom","rt":null,"stimulus":"Stimuli_Rocks480/M_Slate_04.png","response":null,"trial_type":"image-keyboard-response","trial_index":134,"plugin_version":"2.1.0","time_elapsed":519830,"subject_id":"88293","group":"Group2","full_date":"2025-11-29T22:29:17.861Z","date":"2025-11-29","time":"22:29:17"},{"rt":null,"stimulus":"<p style=\"font-size: 50px; margin: 0; text-align: center;\">+</p>","response":null,"trial_type":"html-keyboard-response","trial_index":135,"plugin_version":"2.1.0","time_elapsed":520833,"subject_id":"88293","group":"Group2","full_date":"2025-11-29T22:29:17.861Z","date":"2025-11-29","time":"22:29:17"},{"task":"memory_phase","broad_category":"I","image_png":"I_Pumice_14.png","image_id":142,"category_name":"Pumice","category":9,"distinct_rating":3.22,"distinct_type":"Bottom","rt":null,"stimulus":"Stimuli_Rocks480/I_Pumice_14.png","response":null,"trial_type":"image-keyboard-response","trial_index":136,"plugin_version":"2.1.0","time_elapsed":523336,"subject_id":"88293","group":"Group2","full_date":"2025-11-29T22:29:17.861Z","date":"2025-11-29","time":"22:29:17"},{"rt":null,"stimulus":"<p style=\"font-size: 50px; margin: 0; text-align: center;\">+</p>","response":null,"trial_type":"html-keyboard-response","trial_index":137,"plugin_version":"2.1.0","time_elapsed":524339,"subject_id":"88293","group":"Group2","full_date":"2025-11-29T22:29:17.861Z","date":"2025-11-29","time":"22:29:17"},{"task":"memory_phase","broad_category":"S","image_png":"S_Shale_07.png","image_id":471,"category_name":"Shale","category":30,"distinct_rating":2.73,"distinct_type":"Bottom","rt":null,"stimulus":"Stimuli_Rocks480/S_Shale_07.png","response":null,"trial_type":"image-keyboard-response","trial_index":138,"plugin_version":"2.1.0","time_elapsed":526846,"subject_id":"88293","group":"Group2","full_date":"2025-11-29T22:29:17.861Z","date":"2025-11-29","time":"22:29:17"},{"rt":null,"stimulus":"<p style=\"font-size: 50px; margin: 0; text-align: center;\">+</p>","response":null,"trial_type":"html-keyboard-response","trial_index":139,"plugin_version":"2.1.0","time_elapsed":527848,"subject_id":"88293","group":"Group2","full_date":"2025-11-29T22:29:17.861Z","date":"2025-11-29","time":"22:29:17"},{"task":"memory_phase","broad_category":"I","image_png":"I_Gabbro_02.png","image_id":50,"category_name":"Gabbro","category":4,"distinct_rating":2.73,"distinct_type":"Bottom","rt":null,"stimulus":"Stimuli_Rocks480/I_Gabbro_02.png","response":null,"trial_type":"image-keyboard-response","trial_index":140,"plugin_version":"2.1.0","time_elapsed":530352,"subject_id":"88293","group":"Group2","full_date":"2025-11-29T22:29:17.861Z","date":"2025-11-29","time":"22:29:17"},{"rt":null,"stimulus":"<p style=\"font-size: 50px; margin: 0; text-align: center;\">+</p>","response":null,"trial_type":"html-keyboard-response","trial_index":141,"plugin_version":"2.1.0","time_elapsed":531354,"subject_id":"88293","group":"Group2","full_date":"2025-11-29T22:29:17.861Z","date":"2025-11-29","time":"22:29:17"},{"task":"memory_phase","broad_category":"S","image_png":"S_Shale_02.png","image_id":466,"category_name":"Shale","category":30,"distinct_rating":2.9,"distinct_type":"Bottom","rt":null,"stimulus":"Stimuli_Rocks480/S_Shale_02.png","response":null,"trial_type":"image-keyboard-response","trial_index":142,"plugin_version":"2.1.0","time_elapsed":533858,"subject_id":"88293","group":"Group2","full_date":"2025-11-29T22:29:17.861Z","date":"2025-11-29","time":"22:29:17"},{"rt":null,"stimulus":"<p style=\"font-size: 50px; margin: 0; text-align: center;\">+</p>","response":null,"trial_type":"html-keyboard-response","trial_index":143,"plugin_version":"2.1.0","time_elapsed":534861,"subject_id":"88293","group":"Group2","full_date":"2025-11-29T22:29:17.861Z","date":"2025-11-29","time":"22:29:17"},{"task":"memory_phase","broad_category":"S","image_png":"S_Chert_13.png","image_id":365,"category_name":"Chert","category":23,"distinct_rating":6.57,"distinct_type":"Top","rt":null,"stimulus":"Stimuli_Rocks480/S_Chert_13.png","response":null,"trial_type":"image-keyboard-response","trial_index":144,"plugin_version":"2.1.0","time_elapsed":537363,"subject_id":"88293","group":"Group2","full_date":"2025-11-29T22:29:17.861Z","date":"2025-11-29","time":"22:29:17"},{"rt":null,"stimulus":"<p style=\"font-size: 50px; margin: 0; text-align: center;\">+</p>","response":null,"trial_type":"html-keyboard-response","trial_index":145,"plugin_version":"2.1.0","time_elapsed":538365,"subject_id":"88293","group":"Group2","full_date":"2025-11-29T22:29:17.861Z","date":"2025-11-29","time":"22:29:17"},{"task":"memory_phase","broad_category":"M","image_png":"M_Quartzite_07.png","image_id":279,"category_name":"Quartzite","category":18,"distinct_rating":1.97,"distinct_type":"Bottom","rt":null,"stimulus":"Stimuli_Rocks480/M_Quartzite_07.png","response":null,"trial_type":"image-keyboard-response","trial_index":146,"plugin_version":"2.1.0","time_elapsed":540869,"subject_id":"88293","group":"Group2","full_date":"2025-11-29T22:29:17.861Z","date":"2025-11-29","time":"22:29:17"},{"rt":null,"stimulus":"<p style=\"font-size: 50px; margin: 0; text-align: center;\">+</p>","response":null,"trial_type":"html-keyboard-response","trial_index":147,"plugin_version":"2.1.0","time_elapsed":541871,"subject_id":"88293","group":"Group2","full_date":"2025-11-29T22:29:17.861Z","date":"2025-11-29","time":"22:29:17"},{"task":"memory_phase","broad_category":"M","image_png":"M_Quartzite_12.png","image_id":284,"category_name":"Quartzite","category":18,"distinct_rating":1.92,"distinct_type":"Bottom","rt":null,"stimulus":"Stimuli_Rocks480/M_Quartzite_12.png","response":null,"trial_type":"image-keyboard-response","trial_index":148,"plugin_version":"2.1.0","time_elapsed":544374,"subject_id":"88293","group":"Group2","full_date":"2025-11-29T22:29:17.861Z","date":"2025-11-29","time":"22:29:17"},{"rt":null,"stimulus":"<p style=\"font-size: 50px; margin: 0; text-align: center;\">+</p>","response":null,"trial_type":"html-keyboard-response","trial_index":149,"plugin_version":"2.1.0","time_elapsed":545377,"subject_id":"88293","group":"Group2","full_date":"2025-11-29T22:29:17.861Z","date":"2025-11-29","time":"22:29:17"},{"task":"memory_phase","broad_category":"I","image_png":"I_Diorite_15.png","image_id":47,"category_name":"Diorite","category":3,"distinct_rating":3.05,"distinct_type":"Bottom","rt":null,"stimulus":"Stimuli_Rocks480/I_Diorite_15.png","response":null,"trial_type":"image-keyboard-response","trial_index":150,"plugin_version":"2.1.0","time_elapsed":547881,"subject_id":"88293","group":"Group2","full_date":"2025-11-29T22:29:17.861Z","date":"2025-11-29","time":"22:29:17"},{"rt":null,"stimulus":"<p style=\"font-size: 50px; margin: 0; text-align: center;\">+</p>","response":null,"trial_type":"html-keyboard-response","trial_index":151,"plugin_version":"2.1.0","time_elapsed":548883,"subject_id":"88293","group":"Group2","full_date":"2025-11-29T22:29:17.861Z","date":"2025-11-29","time":"22:29:17"},{"task":"memory_phase","broad_category":"M","image_png":"M_Gneiss_10.png","image_id":202,"category_name":"Gneiss","category":13,"distinct_rating":3.09,"distinct_type":"Bottom","rt":null,"stimulus":"Stimuli_Rocks480/M_Gneiss_10.png","response":null,"trial_type":"image-keyboard-response","trial_index":152,"plugin_version":"2.1.0","time_elapsed":551387,"subject_id":"88293","group":"Group2","full_date":"2025-11-29T22:29:17.861Z","date":"2025-11-29","time":"22:29:17"},{"rt":null,"stimulus":"<p style=\"font-size: 50px; margin: 0; text-align: center;\">+</p>","response":null,"trial_type":"html-keyboard-response","trial_index":153,"plugin_version":"2.1.0","time_elapsed":552389,"subject_id":"88293","group":"Group2","full_date":"2025-11-29T22:29:17.861Z","date":"2025-11-29","time":"22:29:17"},{"task":"memory_phase","broad_category":"I","image_png":"I_Pegmatite_03.png","image_id":99,"category_name":"Pegmatite","category":7,"distinct_rating":7.24,"distinct_type":"Top","rt":null,"stimulus":"Stimuli_Rocks480/I_Pegmatite_03.png","response":null,"trial_type":"image-keyboard-response","trial_index":154,"plugin_version":"2.1.0","time_elapsed":554892,"subject_id":"88293","group":"Group2","full_date":"2025-11-29T22:29:17.861Z","date":"2025-11-29","time":"22:29:17"},{"rt":null,"stimulus":"<p style=\"font-size: 50px; margin: 0; text-align: center;\">+</p>","response":null,"trial_type":"html-keyboard-response","trial_index":155,"plugin_version":"2.1.0","time_elapsed":555895,"subject_id":"88293","group":"Group2","full_date":"2025-11-29T22:29:17.861Z","date":"2025-11-29","time":"22:29:17"},{"task":"memory_phase","broad_category":"I","image_png":"I_Pumice_01.png","image_id":129,"category_name":"Pumice","category":9,"distinct_rating":3.25,"distinct_type":"Bottom","rt":null,"stimulus":"Stimuli_Rocks480/I_Pumice_01.png","response":null,"trial_type":"image-keyboard-response","trial_index":156,"plugin_version":"2.1.0","time_elapsed":558398,"subject_id":"88293","group":"Group2","full_date":"2025-11-29T22:29:17.861Z","date":"2025-11-29","time":"22:29:17"},{"rt":13087,"stimulus":"<p style=\"max-width: 760px; margin: auto; font-size: 35px; line-height: 1.5;\">Press SPACE to continue study phase</p>","response":" ","trial_type":"html-keyboard-response","trial_index":157,"plugin_version":"2.1.0","time_elapsed":571486,"subject_id":"88293","group":"Group2","full_date":"2025-11-29T22:29:17.861Z","date":"2025-11-29","time":"22:29:17"},{"rt":null,"stimulus":"<p style=\"font-size: 50px; margin: 0; text-align: center;\">+</p>","response":null,"trial_type":"html-keyboard-response","trial_index":158,"plugin_version":"2.1.0","time_elapsed":572488,"subject_id":"88293","group":"Group2","full_date":"2025-11-29T22:29:17.861Z","date":"2025-11-29","time":"22:29:17"},{"task":"memory_phase","broad_category":"M","image_png":"M_Phyllite_05.png","image_id":261,"category_name":"Phyllite","category":17,"distinct_rating":2.14,"distinct_type":"Bottom","rt":null,"stimulus":"Stimuli_Rocks480/M_Phyllite_05.png","response":null,"trial_type":"image-keyboard-response","trial_index":159,"plugin_version":"2.1.0","time_elapsed":574991,"subject_id":"88293","group":"Group2","full_date":"2025-11-29T22:29:17.861Z","date":"2025-11-29","time":"22:29:17"},{"rt":null,"stimulus":"<p style=\"font-size: 50px; margin: 0; text-align: center;\">+</p>","response":null,"trial_type":"html-keyboard-response","trial_index":160,"plugin_version":"2.1.0","time_elapsed":575994,"subject_id":"88293","group":"Group2","full_date":"2025-11-29T22:29:17.861Z","date":"2025-11-29","time":"22:29:17"},{"task":"memory_phase","broad_category":"S","image_png":"S_Dolomite_07.png","image_id":391,"category_name":"Dolomite","category":25,"distinct_rating":1.73,"distinct_type":"Bottom","rt":null,"stimulus":"Stimuli_Rocks480/S_Dolomite_07.png","response":null,"trial_type":"image-keyboard-response","trial_index":161,"plugin_version":"2.1.0","time_elapsed":578498,"subject_id":"88293","group":"Group2","full_date":"2025-11-29T22:29:17.861Z","date":"2025-11-29","time":"22:29:17"},{"rt":null,"stimulus":"<p style=\"font-size: 50px; margin: 0; text-align: center;\">+</p>","response":null,"trial_type":"html-keyboard-response","trial_index":162,"plugin_version":"2.1.0","time_elapsed":579501,"subject_id":"88293","group":"Group2","full_date":"2025-11-29T22:29:17.861Z","date":"2025-11-29","time":"22:29:17"},{"task":"memory_phase","broad_category":"I","image_png":"I_Basalt_10.png","image_id":26,"category_name":"Basalt","category":2,"distinct_rating":2.76,"distinct_type":"Bottom","rt":null,"stimulus":"Stimuli_Rocks480/I_Basalt_10.png","response":null,"trial_type":"image-keyboard-response","trial_index":163,"plugin_version":"2.1.0","time_elapsed":582004,"subject_id":"88293","group":"Group2","full_date":"2025-11-29T22:29:17.861Z","date":"2025-11-29","time":"22:29:17"},{"rt":null,"stimulus":"<p style=\"font-size: 50px; margin: 0; text-align: center;\">+</p>","response":null,"trial_type":"html-keyboard-response","trial_index":164,"plugin_version":"2.1.0","time_elapsed":583007,"subject_id":"88293","group":"Group2","full_date":"2025-11-29T22:29:17.861Z","date":"2025-11-29","time":"22:29:17"},{"task":"memory_phase","broad_category":"M","image_png":"M_Slate_14.png","image_id":318,"category_name":"Slate","category":20,"distinct_rating":2.58,"distinct_type":"Bottom","rt":null,"stimulus":"Stimuli_Rocks480/M_Slate_14.png","response":null,"trial_type":"image-keyboard-response","trial_index":165,"plugin_version":"2.1.0","time_elapsed":585510,"subject_id":"88293","group":"Group2","full_date":"2025-11-29T22:29:17.861Z","date":"2025-11-29","time":"22:29:17"},{"rt":null,"stimulus":"<p style=\"font-size: 50px; margin: 0; text-align: center;\">+</p>","response":null,"trial_type":"html-keyboard-response","trial_index":166,"plugin_version":"2.1.0","time_elapsed":586512,"subject_id":"88293","group":"Group2","full_date":"2025-11-29T22:29:17.861Z","date":"2025-11-29","time":"22:29:17"},{"task":"memory_phase","broad_category":"I","image_png":"I_Pumice_13.png","image_id":141,"category_name":"Pumice","category":9,"distinct_rating":3.12,"distinct_type":"Bottom","rt":null,"stimulus":"Stimuli_Rocks480/I_Pumice_13.png","response":null,"trial_type":"image-keyboard-response","trial_index":167,"plugin_version":"2.1.0","time_elapsed":589015,"subject_id":"88293","group":"Group2","full_date":"2025-11-29T22:29:17.861Z","date":"2025-11-29","time":"22:29:17"},{"rt":null,"stimulus":"<p style=\"font-size: 50px; margin: 0; text-align: center;\">+</p>","response":null,"trial_type":"html-keyboard-response","trial_index":168,"plugin_version":"2.1.0","time_elapsed":590018,"subject_id":"88293","group":"Group2","full_date":"2025-11-29T22:29:17.861Z","date":"2025-11-29","time":"22:29:17"},{"task":"memory_phase","broad_category":"S","image_png":"S_Sandstone_04.png","image_id":452,"category_name":"Sandstone","category":29,"distinct_rating":1.8,"distinct_type":"Bottom","rt":null,"stimulus":"Stimuli_Rocks480/S_Sandstone_04.png","response":null,"trial_type":"image-keyboard-response","trial_index":169,"plugin_version":"2.1.0","time_elapsed":592521,"subject_id":"88293","group":"Group2","full_date":"2025-11-29T22:29:17.861Z","date":"2025-11-29","time":"22:29:17"},{"rt":null,"stimulus":"<p style=\"font-size: 50px; margin: 0; text-align: center;\">+</p>","response":null,"trial_type":"html-keyboard-response","trial_index":170,"plugin_version":"2.1.0","time_elapsed":593524,"subject_id":"88293","group":"Group2","full_date":"2025-11-29T22:29:17.861Z","date":"2025-11-29","time":"22:29:17"},{"task":"memory_phase","broad_category":"S","image_png":"S_Sandstone_11.png","image_id":459,"category_name":"Sandstone","category":29,"distinct_rating":1.82,"distinct_type":"Bottom","rt":null,"stimulus":"Stimuli_Rocks480/S_Sandstone_11.png","response":null,"trial_type":"image-keyboard-response","trial_index":171,"plugin_version":"2.1.0","time_elapsed":596028,"subject_id":"88293","group":"Group2","full_date":"2025-11-29T22:29:17.861Z","date":"2025-11-29","time":"22:29:17"},{"rt":null,"stimulus":"<p style=\"font-size: 50px; margin: 0; text-align: center;\">+</p>","response":null,"trial_type":"html-keyboard-response","trial_index":172,"plugin_version":"2.1.0","time_elapsed":597031,"subject_id":"88293","group":"Group2","full_date":"2025-11-29T22:29:17.861Z","date":"2025-11-29","time":"22:29:17"},{"task":"memory_phase","broad_category":"I","image_png":"I_Gabbro_12.png","image_id":60,"category_name":"Gabbro","category":4,"distinct_rating":2.6,"distinct_type":"Bottom","rt":null,"stimulus":"Stimuli_Rocks480/I_Gabbro_12.png","response":null,"trial_type":"image-keyboard-response","trial_index":173,"plugin_version":"2.1.0","time_elapsed":599534,"subject_id":"88293","group":"Group2","full_date":"2025-11-29T22:29:17.861Z","date":"2025-11-29","time":"22:29:17"},{"rt":null,"stimulus":"<p style=\"font-size: 50px; margin: 0; text-align: center;\">+</p>","response":null,"trial_type":"html-keyboard-response","trial_index":174,"plugin_version":"2.1.0","time_elapsed":600536,"subject_id":"88293","group":"Group2","full_date":"2025-11-29T22:29:17.861Z","date":"2025-11-29","time":"22:29:17"},{"task":"memory_phase","broad_category":"M","image_png":"M_Marble_14.png","image_id":238,"category_name":"Marble","category":15,"distinct_rating":3.31,"distinct_type":"Bottom","rt":null,"stimulus":"Stimuli_Rocks480/M_Marble_14.png","response":null,"trial_type":"image-keyboard-response","trial_index":175,"plugin_version":"2.1.0","time_elapsed":603040,"subject_id":"88293","group":"Group2","full_date":"2025-11-29T22:29:17.861Z","date":"2025-11-29","time":"22:29:17"},{"rt":null,"stimulus":"<p style=\"font-size: 50px; margin: 0; text-align: center;\">+</p>","response":null,"trial_type":"html-keyboard-response","trial_index":176,"plugin_version":"2.1.0","time_elapsed":604042,"subject_id":"88293","group":"Group2","full_date":"2025-11-29T22:29:17.861Z","date":"2025-11-29","time":"22:29:17"},{"task":"memory_phase","broad_category":"S","image_png":"S_Shale_03.png","image_id":467,"category_name":"Shale","category":30,"distinct_rating":1.95,"distinct_type":"Bottom","rt":null,"stimulus":"Stimuli_Rocks480/S_Shale_03.png","response":null,"trial_type":"image-keyboard-response","trial_index":177,"plugin_version":"2.1.0","time_elapsed":606546,"subject_id":"88293","group":"Group2","full_date":"2025-11-29T22:29:17.861Z","date":"2025-11-29","time":"22:29:17"},{"rt":null,"stimulus":"<p style=\"font-size: 50px; margin: 0; text-align: center;\">+</p>","response":null,"trial_type":"html-keyboard-response","trial_index":178,"plugin_version":"2.1.0","time_elapsed":607549,"subject_id":"88293","group":"Group2","full_date":"2025-11-29T22:29:17.861Z","date":"2025-11-29","time":"22:29:17"},{"task":"memory_phase","broad_category":"M","image_png":"M_Marble_03.png","image_id":227,"category_name":"Marble","category":15,"distinct_rating":2.67,"distinct_type":"Bottom","rt":null,"stimulus":"Stimuli_Rocks480/M_Marble_03.png","response":null,"trial_type":"image-keyboard-response","trial_index":179,"plugin_version":"2.1.0","time_elapsed":610052,"subject_id":"88293","group":"Group2","full_date":"2025-11-29T22:29:17.861Z","date":"2025-11-29","time":"22:29:17"},{"rt":null,"stimulus":"<p style=\"font-size: 50px; margin: 0; text-align: center;\">+</p>","response":null,"trial_type":"html-keyboard-response","trial_index":180,"plugin_version":"2.1.0","time_elapsed":611055,"subject_id":"88293","group":"Group2","full_date":"2025-11-29T22:29:17.861Z","date":"2025-11-29","time":"22:29:17"},{"task":"memory_phase","broad_category":"S","image_png":"S_Dolomite_01.png","image_id":385,"category_name":"Dolomite","category":25,"distinct_rating":1.43,"distinct_type":"Bottom","rt":null,"stimulus":"Stimuli_Rocks480/S_Dolomite_01.png","response":null,"trial_type":"image-keyboard-response","trial_index":181,"plugin_version":"2.1.0","time_elapsed":613558,"subject_id":"88293","group":"Group2","full_date":"2025-11-29T22:29:17.861Z","date":"2025-11-29","time":"22:29:17"},{"rt":null,"stimulus":"<p style=\"font-size: 50px; margin: 0; text-align: center;\">+</p>","response":null,"trial_type":"html-keyboard-response","trial_index":182,"plugin_version":"2.1.0","time_elapsed":614561,"subject_id":"88293","group":"Group2","full_date":"2025-11-29T22:29:17.861Z","date":"2025-11-29","time":"22:29:17"},{"task":"memory_phase","broad_category":"M","image_png":"M_Gneiss_15.png","image_id":207,"category_name":"Gneiss","category":13,"distinct_rating":3.11,"distinct_type":"Bottom","rt":null,"stimulus":"Stimuli_Rocks480/M_Gneiss_15.png","response":null,"trial_type":"image-keyboard-response","trial_index":183,"plugin_version":"2.1.0","time_elapsed":617064,"subject_id":"88293","group":"Group2","full_date":"2025-11-29T22:29:17.861Z","date":"2025-11-29","time":"22:29:17"},{"rt":null,"stimulus":"<p style=\"font-size: 50px; margin: 0; text-align: center;\">+</p>","response":null,"trial_type":"html-keyboard-response","trial_index":184,"plugin_version":"2.1.0","time_elapsed":618067,"subject_id":"88293","group":"Group2","full_date":"2025-11-29T22:29:17.861Z","date":"2025-11-29","time":"22:29:17"},{"task":"memory_phase","broad_category":"I","image_png":"I_Basalt_08.png","image_id":24,"category_name":"Basalt","category":2,"distinct_rating":2.31,"distinct_type":"Bottom","rt":null,"stimulus":"Stimuli_Rocks480/I_Basalt_08.png","response":null,"trial_type":"image-keyboard-response","trial_index":185,"plugin_version":"2.1.0","time_elapsed":620571,"subject_id":"88293","group":"Group2","full_date":"2025-11-29T22:29:17.861Z","date":"2025-11-29","time":"22:29:17"},{"rt":null,"stimulus":"<p style=\"font-size: 50px; margin: 0; text-align: center;\">+</p>","response":null,"trial_type":"html-keyboard-response","trial_index":186,"plugin_version":"2.1.0","time_elapsed":621574,"subject_id":"88293","group":"Group2","full_date":"2025-11-29T22:29:17.861Z","date":"2025-11-29","time":"22:29:17"},{"task":"memory_phase","broad_category":"M","image_png":"M_Marble_02.png","image_id":226,"category_name":"Marble","category":15,"distinct_rating":3.2,"distinct_type":"Bottom","rt":null,"stimulus":"Stimuli_Rocks480/M_Marble_02.png","response":null,"trial_type":"image-keyboard-response","trial_index":187,"plugin_version":"2.1.0","time_elapsed":624078,"subject_id":"88293","group":"Group2","full_date":"2025-11-29T22:29:17.861Z","date":"2025-11-29","time":"22:29:17"},{"rt":null,"stimulus":"<p style=\"font-size: 50px; margin: 0; text-align: center;\">+</p>","response":null,"trial_type":"html-keyboard-response","trial_index":188,"plugin_version":"2.1.0","time_elapsed":625080,"subject_id":"88293","group":"Group2","full_date":"2025-11-29T22:29:17.861Z","date":"2025-11-29","time":"22:29:17"},{"task":"memory_phase","broad_category":"I","image_png":"I_Gabbro_14.png","image_id":62,"category_name":"Gabbro","category":4,"distinct_rating":2.95,"distinct_type":"Bottom","rt":null,"stimulus":"Stimuli_Rocks480/I_Gabbro_14.png","response":null,"trial_type":"image-keyboard-response","trial_index":189,"plugin_version":"2.1.0","time_elapsed":627583,"subject_id":"88293","group":"Group2","full_date":"2025-11-29T22:29:17.861Z","date":"2025-11-29","time":"22:29:17"},{"rt":null,"stimulus":"<p style=\"font-size: 50px; margin: 0; text-align: center;\">+</p>","response":null,"trial_type":"html-keyboard-response","trial_index":190,"plugin_version":"2.1.0","time_elapsed":628586,"subject_id":"88293","group":"Group2","full_date":"2025-11-29T22:29:17.861Z","date":"2025-11-29","time":"22:29:17"},{"task":"memory_phase","broad_category":"M","image_png":"M_Phyllite_02.png","image_id":258,"category_name":"Phyllite","category":17,"distinct_rating":2.89,"distinct_type":"Bottom","rt":null,"stimulus":"Stimuli_Rocks480/M_Phyllite_02.png","response":null,"trial_type":"image-keyboard-response","trial_index":191,"plugin_version":"2.1.0","time_elapsed":631089,"subject_id":"88293","group":"Group2","full_date":"2025-11-29T22:29:17.861Z","date":"2025-11-29","time":"22:29:17"},{"rt":null,"stimulus":"<p style=\"font-size: 50px; margin: 0; text-align: center;\">+</p>","response":null,"trial_type":"html-keyboard-response","trial_index":192,"plugin_version":"2.1.0","time_elapsed":632092,"subject_id":"88293","group":"Group2","full_date":"2025-11-29T22:29:17.861Z","date":"2025-11-29","time":"22:29:17"},{"task":"memory_phase","broad_category":"M","image_png":"M_Quartzite_15.png","image_id":287,"category_name":"Quartzite","category":18,"distinct_rating":2.19,"distinct_type":"Bottom","rt":null,"stimulus":"Stimuli_Rocks480/M_Quartzite_15.png","response":null,"trial_type":"image-keyboard-response","trial_index":193,"plugin_version":"2.1.0","time_elapsed":634595,"subject_id":"88293","group":"Group2","full_date":"2025-11-29T22:29:17.861Z","date":"2025-11-29","time":"22:29:17"},{"rt":null,"stimulus":"<p style=\"font-size: 50px; margin: 0; text-align: center;\">+</p>","response":null,"trial_type":"html-keyboard-response","trial_index":194,"plugin_version":"2.1.0","time_elapsed":635597,"subject_id":"88293","group":"Group2","full_date":"2025-11-29T22:29:17.861Z","date":"2025-11-29","time":"22:29:17"},{"task":"memory_phase","broad_category":"I","image_png":"I_Rhyolite_05.png","image_id":149,"category_name":"Rhyolite","category":10,"distinct_rating":3.02,"distinct_type":"Bottom","rt":null,"stimulus":"Stimuli_Rocks480/I_Rhyolite_05.png","response":null,"trial_type":"image-keyboard-response","trial_index":195,"plugin_version":"2.1.0","time_elapsed":638100,"subject_id":"88293","group":"Group2","full_date":"2025-11-29T22:29:17.861Z","date":"2025-11-29","time":"22:29:17"},{"rt":null,"stimulus":"<p style=\"font-size: 50px; margin: 0; text-align: center;\">+</p>","response":null,"trial_type":"html-keyboard-response","trial_index":196,"plugin_version":"2.1.0","time_elapsed":639103,"subject_id":"88293","group":"Group2","full_date":"2025-11-29T22:29:17.861Z","date":"2025-11-29","time":"22:29:17"},{"task":"memory_phase","broad_category":"I","image_png":"I_Obsidian_06.png","image_id":86,"category_name":"Obsidian","category":6,"distinct_rating":8.01,"distinct_type":"Top","rt":null,"stimulus":"Stimuli_Rocks480/I_Obsidian_06.png","response":null,"trial_type":"image-keyboard-response","trial_index":197,"plugin_version":"2.1.0","time_elapsed":641605,"subject_id":"88293","group":"Group2","full_date":"2025-11-29T22:29:17.861Z","date":"2025-11-29","time":"22:29:17"},{"rt":null,"stimulus":"<p style=\"font-size: 50px; margin: 0; text-align: center;\">+</p>","response":null,"trial_type":"html-keyboard-response","trial_index":198,"plugin_version":"2.1.0","time_elapsed":642608,"subject_id":"88293","group":"Group2","full_date":"2025-11-29T22:29:17.861Z","date":"2025-11-29","time":"22:29:17"},{"task":"memory_phase","broad_category":"I","image_png":"I_Pegmatite_11.png","image_id":107,"category_name":"Pegmatite","category":7,"distinct_rating":7.11,"distinct_type":"Top","rt":null,"stimulus":"Stimuli_Rocks480/I_Pegmatite_11.png","response":null,"trial_type":"image-keyboard-response","trial_index":199,"plugin_version":"2.1.0","time_elapsed":645111,"subject_id":"88293","group":"Group2","full_date":"2025-11-29T22:29:17.861Z","date":"2025-11-29","time":"22:29:17"},{"rt":null,"stimulus":"<p style=\"font-size: 50px; margin: 0; text-align: center;\">+</p>","response":null,"trial_type":"html-keyboard-response","trial_index":200,"plugin_version":"2.1.0","time_elapsed":646114,"subject_id":"88293","group":"Group2","full_date":"2025-11-29T22:29:17.861Z","date":"2025-11-29","time":"22:29:17"},{"task":"memory_phase","broad_category":"I","image_png":"I_Rhyolite_10.png","image_id":154,"category_name":"Rhyolite","category":10,"distinct_rating":2.88,"distinct_type":"Bottom","rt":null,"stimulus":"Stimuli_Rocks480/I_Rhyolite_10.png","response":null,"trial_type":"image-keyboard-response","trial_index":201,"plugin_version":"2.1.0","time_elapsed":648617,"subject_id":"88293","group":"Group2","full_date":"2025-11-29T22:29:17.861Z","date":"2025-11-29","time":"22:29:17"},{"rt":null,"stimulus":"<p style=\"font-size: 50px; margin: 0; text-align: center;\">+</p>","response":null,"trial_type":"html-keyboard-response","trial_index":202,"plugin_version":"2.1.0","time_elapsed":649620,"subject_id":"88293","group":"Group2","full_date":"2025-11-29T22:29:17.861Z","date":"2025-11-29","time":"22:29:17"},{"task":"memory_phase","broad_category":"S","image_png":"S_Conglomerate_14.png","image_id":382,"category_name":"Conglomerate","category":24,"distinct_rating":6.86,"distinct_type":"Top","rt":null,"stimulus":"Stimuli_Rocks480/S_Conglomerate_14.png","response":null,"trial_type":"image-keyboard-response","trial_index":203,"plugin_version":"2.1.0","time_elapsed":652124,"subject_id":"88293","group":"Group2","full_date":"2025-11-29T22:29:17.861Z","date":"2025-11-29","time":"22:29:17"},{"rt":null,"stimulus":"<p style=\"font-size: 50px; margin: 0; text-align: center;\">+</p>","response":null,"trial_type":"html-keyboard-response","trial_index":204,"plugin_version":"2.1.0","time_elapsed":653126,"subject_id":"88293","group":"Group2","full_date":"2025-11-29T22:29:17.861Z","date":"2025-11-29","time":"22:29:17"},{"task":"memory_phase","broad_category":"I","image_png":"I_Andesite_09.png","image_id":9,"category_name":"Andesite","category":1,"distinct_rating":2.49,"distinct_type":"Bottom","rt":null,"stimulus":"Stimuli_Rocks480/I_Andesite_09.png","response":null,"trial_type":"image-keyboard-response","trial_index":205,"plugin_version":"2.1.0","time_elapsed":655630,"subject_id":"88293","group":"Group2","full_date":"2025-11-29T22:29:17.861Z","date":"2025-11-29","time":"22:29:17"},{"rt":null,"stimulus":"<p style=\"font-size: 50px; margin: 0; text-align: center;\">+</p>","response":null,"trial_type":"html-keyboard-response","trial_index":206,"plugin_version":"2.1.0","time_elapsed":656632,"subject_id":"88293","group":"Group2","full_date":"2025-11-29T22:29:17.861Z","date":"2025-11-29","time":"22:29:17"},{"task":"memory_phase","broad_category":"M","image_png":"M_Slate_10.png","image_id":314,"category_name":"Slate","category":20,"distinct_rating":1.94,"distinct_type":"Bottom","rt":null,"stimulus":"Stimuli_Rocks480/M_Slate_10.png","response":null,"trial_type":"image-keyboard-response","trial_index":207,"plugin_version":"2.1.0","time_elapsed":659135,"subject_id":"88293","group":"Group2","full_date":"2025-11-29T22:29:17.861Z","date":"2025-11-29","time":"22:29:17"},{"rt":15215,"stimulus":"<p style=\"max-width: 760px; margin: auto; font-size: 35px; line-height: 1.5;\">You have completed 2 study phases. Now, we'll show you all the images again 1 more time.<br><br>Press SPACE to continue</p>","response":" ","trial_type":"html-keyboard-response","trial_index":208,"plugin_version":"2.1.0","time_elapsed":674351,"subject_id":"88293","group":"Group2","full_date":"2025-11-29T22:29:17.861Z","date":"2025-11-29","time":"22:29:17"},{"rt":null,"stimulus":"<p style=\"font-size: 50px; margin: 0; text-align: center;\">+</p>","response":null,"trial_type":"html-keyboard-response","trial_index":209,"plugin_version":"2.1.0","time_elapsed":675354,"subject_id":"88293","group":"Group2","full_date":"2025-11-29T22:29:17.861Z","date":"2025-11-29","time":"22:29:17"},{"task":"memory_phase","broad_category":"S","image_png":"S_Chert_13.png","image_id":365,"category_name":"Chert","category":23,"distinct_rating":6.57,"distinct_type":"Top","rt":null,"stimulus":"Stimuli_Rocks480/S_Chert_13.png","response":null,"trial_type":"image-keyboard-response","trial_index":210,"plugin_version":"2.1.0","time_elapsed":677857,"subject_id":"88293","group":"Group2","full_date":"2025-11-29T22:29:17.861Z","date":"2025-11-29","time":"22:29:17"},{"rt":null,"stimulus":"<p style=\"font-size: 50px; margin: 0; text-align: center;\">+</p>","response":null,"trial_type":"html-keyboard-response","trial_index":211,"plugin_version":"2.1.0","time_elapsed":678859,"subject_id":"88293","group":"Group2","full_date":"2025-11-29T22:29:17.861Z","date":"2025-11-29","time":"22:29:17"},{"task":"memory_phase","broad_category":"I","image_png":"I_Basalt_08.png","image_id":24,"category_name":"Basalt","category":2,"distinct_rating":2.31,"distinct_type":"Bottom","rt":null,"stimulus":"Stimuli_Rocks480/I_Basalt_08.png","response":null,"trial_type":"image-keyboard-response","trial_index":212,"plugin_version":"2.1.0","time_elapsed":681363,"subject_id":"88293","group":"Group2","full_date":"2025-11-29T22:29:17.861Z","date":"2025-11-29","time":"22:29:17"},{"rt":null,"stimulus":"<p style=\"font-size: 50px; margin: 0; text-align: center;\">+</p>","response":null,"trial_type":"html-keyboard-response","trial_index":213,"plugin_version":"2.1.0","time_elapsed":682365,"subject_id":"88293","group":"Group2","full_date":"2025-11-29T22:29:17.861Z","date":"2025-11-29","time":"22:29:17"},{"task":"memory_phase","broad_category":"S","image_png":"S_Rock Salt_15.png","image_id":447,"category_name":"Rock Salt","category":28,"distinct_rating":7.79,"distinct_type":"Top","rt":null,"stimulus":"Stimuli_Rocks480/S_Rock Salt_15.png","response":null,"trial_type":"image-keyboard-response","trial_index":214,"plugin_version":"2.1.0","time_elapsed":684869,"subject_id":"88293","group":"Group2","full_date":"2025-11-29T22:29:17.861Z","date":"2025-11-29","time":"22:29:17"},{"rt":null,"stimulus":"<p style=\"font-size: 50px; margin: 0; text-align: center;\">+</p>","response":null,"trial_type":"html-keyboard-response","trial_index":215,"plugin_version":"2.1.0","time_elapsed":685871,"subject_id":"88293","group":"Group2","full_date":"2025-11-29T22:29:17.861Z","date":"2025-11-29","time":"22:29:17"},{"task":"memory_phase","broad_category":"I","image_png":"I_Obsidian_06.png","image_id":86,"category_name":"Obsidian","category":6,"distinct_rating":8.01,"distinct_type":"Top","rt":null,"stimulus":"Stimuli_Rocks480/I_Obsidian_06.png","response":null,"trial_type":"image-keyboard-response","trial_index":216,"plugin_version":"2.1.0","time_elapsed":688375,"subject_id":"88293","group":"Group2","full_date":"2025-11-29T22:29:17.861Z","date":"2025-11-29","time":"22:29:17"},{"rt":null,"stimulus":"<p style=\"font-size: 50px; margin: 0; text-align: center;\">+</p>","response":null,"trial_type":"html-keyboard-response","trial_index":217,"plugin_version":"2.1.0","time_elapsed":689377,"subject_id":"88293","group":"Group2","full_date":"2025-11-29T22:29:17.861Z","date":"2025-11-29","time":"22:29:17"},{"task":"memory_phase","broad_category":"I","image_png":"I_Diorite_10.png","image_id":42,"category_name":"Diorite","category":3,"distinct_rating":2.84,"distinct_type":"Bottom","rt":null,"stimulus":"Stimuli_Rocks480/I_Diorite_10.png","response":null,"trial_type":"image-keyboard-response","trial_index":218,"plugin_version":"2.1.0","time_elapsed":691880,"subject_id":"88293","group":"Group2","full_date":"2025-11-29T22:29:17.861Z","date":"2025-11-29","time":"22:29:17"},{"rt":null,"stimulus":"<p style=\"font-size: 50px; margin: 0; text-align: center;\">+</p>","response":null,"trial_type":"html-keyboard-response","trial_index":219,"plugin_version":"2.1.0","time_elapsed":692883,"subject_id":"88293","group":"Group2","full_date":"2025-11-29T22:29:17.861Z","date":"2025-11-29","time":"22:29:17"},{"task":"memory_phase","broad_category":"S","image_png":"S_Shale_03.png","image_id":467,"category_name":"Shale","category":30,"distinct_rating":1.95,"distinct_type":"Bottom","rt":null,"stimulus":"Stimuli_Rocks480/S_Shale_03.png","response":null,"trial_type":"image-keyboard-response","trial_index":220,"plugin_version":"2.1.0","time_elapsed":695386,"subject_id":"88293","group":"Group2","full_date":"2025-11-29T22:29:17.861Z","date":"2025-11-29","time":"22:29:17"},{"rt":null,"stimulus":"<p style=\"font-size: 50px; margin: 0; text-align: center;\">+</p>","response":null,"trial_type":"html-keyboard-response","trial_index":221,"plugin_version":"2.1.0","time_elapsed":696387,"subject_id":"88293","group":"Group2","full_date":"2025-11-29T22:29:17.861Z","date":"2025-11-29","time":"22:29:17"},{"task":"memory_phase","broad_category":"I","image_png":"I_Diorite_15.png","image_id":47,"category_name":"Diorite","category":3,"distinct_rating":3.05,"distinct_type":"Bottom","rt":null,"stimulus":"Stimuli_Rocks480/I_Diorite_15.png","response":null,"trial_type":"image-keyboard-response","trial_index":222,"plugin_version":"2.1.0","time_elapsed":698891,"subject_id":"88293","group":"Group2","full_date":"2025-11-29T22:29:17.861Z","date":"2025-11-29","time":"22:29:17"},{"rt":null,"stimulus":"<p style=\"font-size: 50px; margin: 0; text-align: center;\">+</p>","response":null,"trial_type":"html-keyboard-response","trial_index":223,"plugin_version":"2.1.0","time_elapsed":699893,"subject_id":"88293","group":"Group2","full_date":"2025-11-29T22:29:17.861Z","date":"2025-11-29","time":"22:29:17"},{"task":"memory_phase","broad_category":"I","image_png":"I_Rhyolite_05.png","image_id":149,"category_name":"Rhyolite","category":10,"distinct_rating":3.02,"distinct_type":"Bottom","rt":null,"stimulus":"Stimuli_Rocks480/I_Rhyolite_05.png","response":null,"trial_type":"image-keyboard-response","trial_index":224,"plugin_version":"2.1.0","time_elapsed":702396,"subject_id":"88293","group":"Group2","full_date":"2025-11-29T22:29:17.861Z","date":"2025-11-29","time":"22:29:17"},{"rt":null,"stimulus":"<p style=\"font-size: 50px; margin: 0; text-align: center;\">+</p>","response":null,"trial_type":"html-keyboard-response","trial_index":225,"plugin_version":"2.1.0","time_elapsed":703398,"subject_id":"88293","group":"Group2","full_date":"2025-11-29T22:29:17.861Z","date":"2025-11-29","time":"22:29:17"},{"task":"memory_phase","broad_category":"S","image_png":"S_Sandstone_11.png","image_id":459,"category_name":"Sandstone","category":29,"distinct_rating":1.82,"distinct_type":"Bottom","rt":null,"stimulus":"Stimuli_Rocks480/S_Sandstone_11.png","response":null,"trial_type":"image-keyboard-response","trial_index":226,"plugin_version":"2.1.0","time_elapsed":705901,"subject_id":"88293","group":"Group2","full_date":"2025-11-29T22:29:17.861Z","date":"2025-11-29","time":"22:29:17"},{"rt":null,"stimulus":"<p style=\"font-size: 50px; margin: 0; text-align: center;\">+</p>","response":null,"trial_type":"html-keyboard-response","trial_index":227,"plugin_version":"2.1.0","time_elapsed":706904,"subject_id":"88293","group":"Group2","full_date":"2025-11-29T22:29:17.861Z","date":"2025-11-29","time":"22:29:17"},{"task":"memory_phase","broad_category":"I","image_png":"I_Andesite_04.png","image_id":4,"category_name":"Andesite","category":1,"distinct_rating":3.18,"distinct_type":"Bottom","rt":null,"stimulus":"Stimuli_Rocks480/I_Andesite_04.png","response":null,"trial_type":"image-keyboard-response","trial_index":228,"plugin_version":"2.1.0","time_elapsed":709407,"subject_id":"88293","group":"Group2","full_date":"2025-11-29T22:29:17.861Z","date":"2025-11-29","time":"22:29:17"},{"rt":null,"stimulus":"<p style=\"font-size: 50px; margin: 0; text-align: center;\">+</p>","response":null,"trial_type":"html-keyboard-response","trial_index":229,"plugin_version":"2.1.0","time_elapsed":710410,"subject_id":"88293","group":"Group2","full_date":"2025-11-29T22:29:17.861Z","date":"2025-11-29","time":"22:29:17"},{"task":"memory_phase","broad_category":"I","image_png":"I_Rhyolite_08.png","image_id":152,"category_name":"Rhyolite","category":10,"distinct_rating":1.38,"distinct_type":"Bottom","rt":null,"stimulus":"Stimuli_Rocks480/I_Rhyolite_08.png","response":null,"trial_type":"image-keyboard-response","trial_index":230,"plugin_version":"2.1.0","time_elapsed":712913,"subject_id":"88293","group":"Group2","full_date":"2025-11-29T22:29:17.861Z","date":"2025-11-29","time":"22:29:17"},{"rt":null,"stimulus":"<p style=\"font-size: 50px; margin: 0; text-align: center;\">+</p>","response":null,"trial_type":"html-keyboard-response","trial_index":231,"plugin_version":"2.1.0","time_elapsed":713915,"subject_id":"88293","group":"Group2","full_date":"2025-11-29T22:29:17.861Z","date":"2025-11-29","time":"22:29:17"},{"task":"memory_phase","broad_category":"I","image_png":"I_Andesite_03.png","image_id":3,"category_name":"Andesite","category":1,"distinct_rating":3.17,"distinct_type":"Bottom","rt":null,"stimulus":"Stimuli_Rocks480/I_Andesite_03.png","response":null,"trial_type":"image-keyboard-response","trial_index":232,"plugin_version":"2.1.0","time_elapsed":716418,"subject_id":"88293","group":"Group2","full_date":"2025-11-29T22:29:17.861Z","date":"2025-11-29","time":"22:29:17"},{"rt":null,"stimulus":"<p style=\"font-size: 50px; margin: 0; text-align: center;\">+</p>","response":null,"trial_type":"html-keyboard-response","trial_index":233,"plugin_version":"2.1.0","time_elapsed":717421,"subject_id":"88293","group":"Group2","full_date":"2025-11-29T22:29:17.861Z","date":"2025-11-29","time":"22:29:17"},{"task":"memory_phase","broad_category":"M","image_png":"M_Marble_02.png","image_id":226,"category_name":"Marble","category":15,"distinct_rating":3.2,"distinct_type":"Bottom","rt":null,"stimulus":"Stimuli_Rocks480/M_Marble_02.png","response":null,"trial_type":"image-keyboard-response","trial_index":234,"plugin_version":"2.1.0","time_elapsed":719924,"subject_id":"88293","group":"Group2","full_date":"2025-11-29T22:29:17.861Z","date":"2025-11-29","time":"22:29:17"},{"rt":null,"stimulus":"<p style=\"font-size: 50px; margin: 0; text-align: center;\">+</p>","response":null,"trial_type":"html-keyboard-response","trial_index":235,"plugin_version":"2.1.0","time_elapsed":720926,"subject_id":"88293","group":"Group2","full_date":"2025-11-29T22:29:17.861Z","date":"2025-11-29","time":"22:29:17"},{"task":"memory_phase","broad_category":"S","image_png":"S_Sandstone_04.png","image_id":452,"category_name":"Sandstone","category":29,"distinct_rating":1.8,"distinct_type":"Bottom","rt":null,"stimulus":"Stimuli_Rocks480/S_Sandstone_04.png","response":null,"trial_type":"image-keyboard-response","trial_index":236,"plugin_version":"2.1.0","time_elapsed":723430,"subject_id":"88293","group":"Group2","full_date":"2025-11-29T22:29:17.861Z","date":"2025-11-29","time":"22:29:17"},{"rt":null,"stimulus":"<p style=\"font-size: 50px; margin: 0; text-align: center;\">+</p>","response":null,"trial_type":"html-keyboard-response","trial_index":237,"plugin_version":"2.1.0","time_elapsed":724432,"subject_id":"88293","group":"Group2","full_date":"2025-11-29T22:29:17.861Z","date":"2025-11-29","time":"22:29:17"},{"task":"memory_phase","broad_category":"M","image_png":"M_Quartzite_12.png","image_id":284,"category_name":"Quartzite","category":18,"distinct_rating":1.92,"distinct_type":"Bottom","rt":null,"stimulus":"Stimuli_Rocks480/M_Quartzite_12.png","response":null,"trial_type":"image-keyboard-response","trial_index":238,"plugin_version":"2.1.0","time_elapsed":726940,"subject_id":"88293","group":"Group2","full_date":"2025-11-29T22:29:17.861Z","date":"2025-11-29","time":"22:29:17"},{"rt":null,"stimulus":"<p style=\"font-size: 50px; margin: 0; text-align: center;\">+</p>","response":null,"trial_type":"html-keyboard-response","trial_index":239,"plugin_version":"2.1.0","time_elapsed":727942,"subject_id":"88293","group":"Group2","full_date":"2025-11-29T22:29:17.861Z","date":"2025-11-29","time":"22:29:17"},{"task":"memory_phase","broad_category":"S","image_png":"S_Rock Salt_13.png","image_id":445,"category_name":"Rock Salt","category":28,"distinct_rating":7.58,"distinct_type":"Top","rt":null,"stimulus":"Stimuli_Rocks480/S_Rock Salt_13.png","response":null,"trial_type":"image-keyboard-response","trial_index":240,"plugin_version":"2.1.0","time_elapsed":730446,"subject_id":"88293","group":"Group2","full_date":"2025-11-29T22:29:17.861Z","date":"2025-11-29","time":"22:29:17"},{"rt":null,"stimulus":"<p style=\"font-size: 50px; margin: 0; text-align: center;\">+</p>","response":null,"trial_type":"html-keyboard-response","trial_index":241,"plugin_version":"2.1.0","time_elapsed":731447,"subject_id":"88293","group":"Group2","full_date":"2025-11-29T22:29:17.861Z","date":"2025-11-29","time":"22:29:17"},{"task":"memory_phase","broad_category":"I","image_png":"I_Pumice_01.png","image_id":129,"category_name":"Pumice","category":9,"distinct_rating":3.25,"distinct_type":"Bottom","rt":null,"stimulus":"Stimuli_Rocks480/I_Pumice_01.png","response":null,"trial_type":"image-keyboard-response","trial_index":242,"plugin_version":"2.1.0","time_elapsed":733951,"subject_id":"88293","group":"Group2","full_date":"2025-11-29T22:29:17.861Z","date":"2025-11-29","time":"22:29:17"},{"rt":null,"stimulus":"<p style=\"font-size: 50px; margin: 0; text-align: center;\">+</p>","response":null,"trial_type":"html-keyboard-response","trial_index":243,"plugin_version":"2.1.0","time_elapsed":734953,"subject_id":"88293","group":"Group2","full_date":"2025-11-29T22:29:17.861Z","date":"2025-11-29","time":"22:29:17"},{"task":"memory_phase","broad_category":"M","image_png":"M_Phyllite_02.png","image_id":258,"category_name":"Phyllite","category":17,"distinct_rating":2.89,"distinct_type":"Bottom","rt":null,"stimulus":"Stimuli_Rocks480/M_Phyllite_02.png","response":null,"trial_type":"image-keyboard-response","trial_index":244,"plugin_version":"2.1.0","time_elapsed":737455,"subject_id":"88293","group":"Group2","full_date":"2025-11-29T22:29:17.861Z","date":"2025-11-29","time":"22:29:17"},{"rt":null,"stimulus":"<p style=\"font-size: 50px; margin: 0; text-align: center;\">+</p>","response":null,"trial_type":"html-keyboard-response","trial_index":245,"plugin_version":"2.1.0","time_elapsed":738458,"subject_id":"88293","group":"Group2","full_date":"2025-11-29T22:29:17.861Z","date":"2025-11-29","time":"22:29:17"},{"task":"memory_phase","broad_category":"I","image_png":"I_Basalt_13.png","image_id":29,"category_name":"Basalt","category":2,"distinct_rating":2.68,"distinct_type":"Bottom","rt":null,"stimulus":"Stimuli_Rocks480/I_Basalt_13.png","response":null,"trial_type":"image-keyboard-response","trial_index":246,"plugin_version":"2.1.0","time_elapsed":740962,"subject_id":"88293","group":"Group2","full_date":"2025-11-29T22:29:17.861Z","date":"2025-11-29","time":"22:29:17"},{"rt":null,"stimulus":"<p style=\"font-size: 50px; margin: 0; text-align: center;\">+</p>","response":null,"trial_type":"html-keyboard-response","trial_index":247,"plugin_version":"2.1.0","time_elapsed":741964,"subject_id":"88293","group":"Group2","full_date":"2025-11-29T22:29:17.861Z","date":"2025-11-29","time":"22:29:17"},{"task":"memory_phase","broad_category":"M","image_png":"M_Slate_04.png","image_id":308,"category_name":"Slate","category":20,"distinct_rating":2.2,"distinct_type":"Bottom","rt":null,"stimulus":"Stimuli_Rocks480/M_Slate_04.png","response":null,"trial_type":"image-keyboard-response","trial_index":248,"plugin_version":"2.1.0","time_ela