[{"width":1470,"height":797,"webaudio":true,"browser":"chrome","browser_version":"142.0.0","mobile":false,"os":"Mac OS","fullscreen":true,"vsync_rate":60.19,"webcam":true,"microphone":true,"trial_type":"browser-check","trial_index":0,"plugin_version":"2.1.0","time_elapsed":1010,"subject_id":"87549","group":"Group1","full_date":"2025-12-04T21:24:24.667Z","date":"2025-12-04","time":"21:24:24"},{"success":true,"timeout":false,"failed_images":[],"failed_audio":[],"failed_video":[],"trial_type":"preload","trial_index":1,"plugin_version":"2.1.0","time_elapsed":2758,"subject_id":"87549","group":"Group1","full_date":"2025-12-04T21:24:24.667Z","date":"2025-12-04","time":"21:24:24"},{"rt":8538,"url":"SONA_consent_memorability.html","trial_type":"external-html","trial_index":2,"plugin_version":"2.1.0","time_elapsed":11340,"subject_id":"87549","group":"Group1","full_date":"2025-12-04T21:24:24.667Z","date":"2025-12-04","time":"21:24:24"},{"success":true,"rt":2814,"trial_type":"fullscreen","trial_index":3,"plugin_version":"2.1.0","time_elapsed":15158,"subject_id":"87549","group":"Group1","full_date":"2025-12-04T21:24:24.667Z","date":"2025-12-04","time":"21:24:24"},{"rt":55030,"stimulus":"<div style=\"max-width: 760px; margin: auto; font-size: 20px; line-height: 1.5;\">\n      <h1 style=\"text-align:center; font-size: 30px;\">Instructions</h1>\n      <p>\n        Welcome to the study on <b>visual memory</b>. This experiment consists of <b>two phases</b>: \n        a <b>study phase</b> and a <b>test phase</b>.\n      </p>\n      <p>\n        In the study phase, you will see a series of rock images along with their category labels.\n        The images will appear one at a time.\n        <b>Your task</b> is to learn the categories to which the rock images belong \n        and to remember each image as accurately as possible.\n      </p> \n      <p>\n        Note that we will repeat the study phase <b>3 times</b>, \n        so you will have multiple opportunities to see and remember each image.\n      </p>\n      <p>\n        After the study phase, <b>your memory will be tested</b>. \n        Additional instructions for the test phase will be provided at that time.\n      </p>\n      <p>\n        If your computer has multiple <b>language settings</b> (e.g., English and another language),\n        please make sure it is set to English before starting.\n      </p>\n      <p>\n        You can track your progress using the <b>completion bar</b> at the top of the screen. \n        Please note that the bar will refresh when the test phase begins \n        to give you an accurate sense of your progress in both phases.\n      </p> \n      <p>\n        Press the button below when you are ready to begin.\n      </p>\n    </div>","response":0,"trial_type":"html-button-response","trial_index":4,"plugin_version":"2.1.0","time_elapsed":70190,"subject_id":"87549","group":"Group1","full_date":"2025-12-04T21:24:24.667Z","date":"2025-12-04","time":"21:24:24"},{"rt":null,"stimulus":"<p style=\"font-size: 50px; margin: 0; text-align: center;\">+</p>","response":null,"trial_type":"html-keyboard-response","trial_index":5,"plugin_version":"2.1.0","time_elapsed":71193,"subject_id":"87549","group":"Group1","full_date":"2025-12-04T21:24:24.667Z","date":"2025-12-04","time":"21:24:24"},{"task":"memory_phase","broad_category":"M","image_png":"M_Phyllite_07.png","image_id":263,"category_name":"Phyllite","category":17,"distinct_rating":2.59,"distinct_type":"Bottom","rt":null,"stimulus":"Stimuli_Rocks480/M_Phyllite_07.png","response":null,"trial_type":"image-keyboard-response","trial_index":6,"plugin_version":"2.1.0","time_elapsed":73697,"subject_id":"87549","group":"Group1","full_date":"2025-12-04T21:24:24.667Z","date":"2025-12-04","time":"21:24:24"},{"rt":null,"stimulus":"<p style=\"font-size: 50px; margin: 0; text-align: center;\">+</p>","response":null,"trial_type":"html-keyboard-response","trial_index":7,"plugin_version":"2.1.0","time_elapsed":74700,"subject_id":"87549","group":"Group1","full_date":"2025-12-04T21:24:24.667Z","date":"2025-12-04","time":"21:24:24"},{"task":"memory_phase","broad_category":"I","image_png":"I_Andesite_10.png","image_id":10,"category_name":"Andesite","category":1,"distinct_rating":3.15,"distinct_type":"Bottom","rt":null,"stimulus":"Stimuli_Rocks480/I_Andesite_10.png","response":null,"trial_type":"image-keyboard-response","trial_index":8,"plugin_version":"2.1.0","time_elapsed":77203,"subject_id":"87549","group":"Group1","full_date":"2025-12-04T21:24:24.667Z","date":"2025-12-04","time":"21:24:24"},{"rt":null,"stimulus":"<p style=\"font-size: 50px; margin: 0; text-align: center;\">+</p>","response":null,"trial_type":"html-keyboard-response","trial_index":9,"plugin_version":"2.1.0","time_elapsed":78206,"subject_id":"87549","group":"Group1","full_date":"2025-12-04T21:24:24.667Z","date":"2025-12-04","time":"21:24:24"},{"task":"memory_phase","broad_category":"S","image_png":"S_Shale_12.png","image_id":476,"category_name":"Shale","category":30,"distinct_rating":2.48,"distinct_type":"Bottom","rt":null,"stimulus":"Stimuli_Rocks480/S_Shale_12.png","response":null,"trial_type":"image-keyboard-response","trial_index":10,"plugin_version":"2.1.0","time_elapsed":80709,"subject_id":"87549","group":"Group1","full_date":"2025-12-04T21:24:24.667Z","date":"2025-12-04","time":"21:24:24"},{"rt":null,"stimulus":"<p style=\"font-size: 50px; margin: 0; text-align: center;\">+</p>","response":null,"trial_type":"html-keyboard-response","trial_index":11,"plugin_version":"2.1.0","time_elapsed":81712,"subject_id":"87549","group":"Group1","full_date":"2025-12-04T21:24:24.667Z","date":"2025-12-04","time":"21:24:24"},{"task":"memory_phase","broad_category":"M","image_png":"M_Slate_11.png","image_id":315,"category_name":"Slate","category":20,"distinct_rating":2.75,"distinct_type":"Bottom","rt":null,"stimulus":"Stimuli_Rocks480/M_Slate_11.png","response":null,"trial_type":"image-keyboard-response","trial_index":12,"plugin_version":"2.1.0","time_elapsed":84215,"subject_id":"87549","group":"Group1","full_date":"2025-12-04T21:24:24.667Z","date":"2025-12-04","time":"21:24:24"},{"rt":null,"stimulus":"<p style=\"font-size: 50px; margin: 0; text-align: center;\">+</p>","response":null,"trial_type":"html-keyboard-response","trial_index":13,"plugin_version":"2.1.0","time_elapsed":85217,"subject_id":"87549","group":"Group1","full_date":"2025-12-04T21:24:24.667Z","date":"2025-12-04","time":"21:24:24"},{"task":"memory_phase","broad_category":"S","image_png":"S_Rock Gypsum_04.png","image_id":420,"category_name":"Rock Gypsum","category":27,"distinct_rating":7.61,"distinct_type":"Top","rt":null,"stimulus":"Stimuli_Rocks480/S_Rock Gypsum_04.png","response":null,"trial_type":"image-keyboard-response","trial_index":14,"plugin_version":"2.1.0","time_elapsed":87721,"subject_id":"87549","group":"Group1","full_date":"2025-12-04T21:24:24.667Z","date":"2025-12-04","time":"21:24:24"},{"rt":null,"stimulus":"<p style=\"font-size: 50px; margin: 0; text-align: center;\">+</p>","response":null,"trial_type":"html-keyboard-response","trial_index":15,"plugin_version":"2.1.0","time_elapsed":88724,"subject_id":"87549","group":"Group1","full_date":"2025-12-04T21:24:24.667Z","date":"2025-12-04","time":"21:24:24"},{"task":"memory_phase","broad_category":"I","image_png":"I_Pegmatite_10.png","image_id":106,"category_name":"Pegmatite","category":7,"distinct_rating":7.66,"distinct_type":"Top","rt":null,"stimulus":"Stimuli_Rocks480/I_Pegmatite_10.png","response":null,"trial_type":"image-keyboard-response","trial_index":16,"plugin_version":"2.1.0","time_elapsed":91227,"subject_id":"87549","group":"Group1","full_date":"2025-12-04T21:24:24.667Z","date":"2025-12-04","time":"21:24:24"},{"rt":null,"stimulus":"<p style=\"font-size: 50px; margin: 0; text-align: center;\">+</p>","response":null,"trial_type":"html-keyboard-response","trial_index":17,"plugin_version":"2.1.0","time_elapsed":92229,"subject_id":"87549","group":"Group1","full_date":"2025-12-04T21:24:24.667Z","date":"2025-12-04","time":"21:24:24"},{"task":"memory_phase","broad_category":"S","image_png":"S_Sandstone_03.png","image_id":451,"category_name":"Sandstone","category":29,"distinct_rating":1.86,"distinct_type":"Bottom","rt":null,"stimulus":"Stimuli_Rocks480/S_Sandstone_03.png","response":null,"trial_type":"image-keyboard-response","trial_index":18,"plugin_version":"2.1.0","time_elapsed":94732,"subject_id":"87549","group":"Group1","full_date":"2025-12-04T21:24:24.667Z","date":"2025-12-04","time":"21:24:24"},{"rt":null,"stimulus":"<p style=\"font-size: 50px; margin: 0; text-align: center;\">+</p>","response":null,"trial_type":"html-keyboard-response","trial_index":19,"plugin_version":"2.1.0","time_elapsed":95735,"subject_id":"87549","group":"Group1","full_date":"2025-12-04T21:24:24.667Z","date":"2025-12-04","time":"21:24:24"},{"task":"memory_phase","broad_category":"S","image_png":"S_Shale_08.png","image_id":472,"category_name":"Shale","category":30,"distinct_rating":2.55,"distinct_type":"Bottom","rt":null,"stimulus":"Stimuli_Rocks480/S_Shale_08.png","response":null,"trial_type":"image-keyboard-response","trial_index":20,"plugin_version":"2.1.0","time_elapsed":98238,"subject_id":"87549","group":"Group1","full_date":"2025-12-04T21:24:24.667Z","date":"2025-12-04","time":"21:24:24"},{"rt":null,"stimulus":"<p style=\"font-size: 50px; margin: 0; text-align: center;\">+</p>","response":null,"trial_type":"html-keyboard-response","trial_index":21,"plugin_version":"2.1.0","time_elapsed":99241,"subject_id":"87549","group":"Group1","full_date":"2025-12-04T21:24:24.667Z","date":"2025-12-04","time":"21:24:24"},{"task":"memory_phase","broad_category":"I","image_png":"I_Basalt_01.png","image_id":17,"category_name":"Basalt","category":2,"distinct_rating":1.92,"distinct_type":"Bottom","rt":null,"stimulus":"Stimuli_Rocks480/I_Basalt_01.png","response":null,"trial_type":"image-keyboard-response","trial_index":22,"plugin_version":"2.1.0","time_elapsed":101745,"subject_id":"87549","group":"Group1","full_date":"2025-12-04T21:24:24.667Z","date":"2025-12-04","time":"21:24:24"},{"rt":null,"stimulus":"<p style=\"font-size: 50px; margin: 0; text-align: center;\">+</p>","response":null,"trial_type":"html-keyboard-response","trial_index":23,"plugin_version":"2.1.0","time_elapsed":102747,"subject_id":"87549","group":"Group1","full_date":"2025-12-04T21:24:24.667Z","date":"2025-12-04","time":"21:24:24"},{"task":"memory_phase","broad_category":"I","image_png":"I_Rhyolite_16.png","image_id":160,"category_name":"Rhyolite","category":10,"distinct_rating":2.19,"distinct_type":"Bottom","rt":null,"stimulus":"Stimuli_Rocks480/I_Rhyolite_16.png","response":null,"trial_type":"image-keyboard-response","trial_index":24,"plugin_version":"2.1.0","time_elapsed":105250,"subject_id":"87549","group":"Group1","full_date":"2025-12-04T21:24:24.667Z","date":"2025-12-04","time":"21:24:24"},{"rt":null,"stimulus":"<p style=\"font-size: 50px; margin: 0; text-align: center;\">+</p>","response":null,"trial_type":"html-keyboard-response","trial_index":25,"plugin_version":"2.1.0","time_elapsed":106253,"subject_id":"87549","group":"Group1","full_date":"2025-12-04T21:24:24.667Z","date":"2025-12-04","time":"21:24:24"},{"task":"memory_phase","broad_category":"S","image_png":"S_Shale_01.png","image_id":465,"category_name":"Shale","category":30,"distinct_rating":2.7,"distinct_type":"Bottom","rt":null,"stimulus":"Stimuli_Rocks480/S_Shale_01.png","response":null,"trial_type":"image-keyboard-response","trial_index":26,"plugin_version":"2.1.0","time_elapsed":108760,"subject_id":"87549","group":"Group1","full_date":"2025-12-04T21:24:24.667Z","date":"2025-12-04","time":"21:24:24"},{"rt":null,"stimulus":"<p style=\"font-size: 50px; margin: 0; text-align: center;\">+</p>","response":null,"trial_type":"html-keyboard-response","trial_index":27,"plugin_version":"2.1.0","time_elapsed":109762,"subject_id":"87549","group":"Group1","full_date":"2025-12-04T21:24:24.667Z","date":"2025-12-04","time":"21:24:24"},{"task":"memory_phase","broad_category":"M","image_png":"M_Quartzite_13.png","image_id":285,"category_name":"Quartzite","category":18,"distinct_rating":2.27,"distinct_type":"Bottom","rt":null,"stimulus":"Stimuli_Rocks480/M_Quartzite_13.png","response":null,"trial_type":"image-keyboard-response","trial_index":28,"plugin_version":"2.1.0","time_elapsed":112266,"subject_id":"87549","group":"Group1","full_date":"2025-12-04T21:24:24.667Z","date":"2025-12-04","time":"21:24:24"},{"rt":null,"stimulus":"<p style=\"font-size: 50px; margin: 0; text-align: center;\">+</p>","response":null,"trial_type":"html-keyboard-response","trial_index":29,"plugin_version":"2.1.0","time_elapsed":113268,"subject_id":"87549","group":"Group1","full_date":"2025-12-04T21:24:24.667Z","date":"2025-12-04","time":"21:24:24"},{"task":"memory_phase","broad_category":"S","image_png":"S_Dolomite_13.png","image_id":397,"category_name":"Dolomite","category":25,"distinct_rating":1.77,"distinct_type":"Bottom","rt":null,"stimulus":"Stimuli_Rocks480/S_Dolomite_13.png","response":null,"trial_type":"image-keyboard-response","trial_index":30,"plugin_version":"2.1.0","time_elapsed":115771,"subject_id":"87549","group":"Group1","full_date":"2025-12-04T21:24:24.667Z","date":"2025-12-04","time":"21:24:24"},{"rt":null,"stimulus":"<p style=\"font-size: 50px; margin: 0; text-align: center;\">+</p>","response":null,"trial_type":"html-keyboard-response","trial_index":31,"plugin_version":"2.1.0","time_elapsed":116774,"subject_id":"87549","group":"Group1","full_date":"2025-12-04T21:24:24.667Z","date":"2025-12-04","time":"21:24:24"},{"task":"memory_phase","broad_category":"I","image_png":"I_Rhyolite_14.png","image_id":158,"category_name":"Rhyolite","category":10,"distinct_rating":2.59,"distinct_type":"Bottom","rt":null,"stimulus":"Stimuli_Rocks480/I_Rhyolite_14.png","response":null,"trial_type":"image-keyboard-response","trial_index":32,"plugin_version":"2.1.0","time_elapsed":119277,"subject_id":"87549","group":"Group1","full_date":"2025-12-04T21:24:24.667Z","date":"2025-12-04","time":"21:24:24"},{"rt":null,"stimulus":"<p style=\"font-size: 50px; margin: 0; text-align: center;\">+</p>","response":null,"trial_type":"html-keyboard-response","trial_index":33,"plugin_version":"2.1.0","time_elapsed":120279,"subject_id":"87549","group":"Group1","full_date":"2025-12-04T21:24:24.667Z","date":"2025-12-04","time":"21:24:24"},{"task":"memory_phase","broad_category":"I","image_png":"I_Gabbro_08.png","image_id":56,"category_name":"Gabbro","category":4,"distinct_rating":3.02,"distinct_type":"Bottom","rt":null,"stimulus":"Stimuli_Rocks480/I_Gabbro_08.png","response":null,"trial_type":"image-keyboard-response","trial_index":34,"plugin_version":"2.1.0","time_elapsed":122782,"subject_id":"87549","group":"Group1","full_date":"2025-12-04T21:24:24.667Z","date":"2025-12-04","time":"21:24:24"},{"rt":null,"stimulus":"<p style=\"font-size: 50px; margin: 0; text-align: center;\">+</p>","response":null,"trial_type":"html-keyboard-response","trial_index":35,"plugin_version":"2.1.0","time_elapsed":123785,"subject_id":"87549","group":"Group1","full_date":"2025-12-04T21:24:24.667Z","date":"2025-12-04","time":"21:24:24"},{"task":"memory_phase","broad_category":"I","image_png":"I_Diorite_05.png","image_id":37,"category_name":"Diorite","category":3,"distinct_rating":3.08,"distinct_type":"Bottom","rt":null,"stimulus":"Stimuli_Rocks480/I_Diorite_05.png","response":null,"trial_type":"image-keyboard-response","trial_index":36,"plugin_version":"2.1.0","time_elapsed":126288,"subject_id":"87549","group":"Group1","full_date":"2025-12-04T21:24:24.667Z","date":"2025-12-04","time":"21:24:24"},{"rt":null,"stimulus":"<p style=\"font-size: 50px; margin: 0; text-align: center;\">+</p>","response":null,"trial_type":"html-keyboard-response","trial_index":37,"plugin_version":"2.1.0","time_elapsed":127291,"subject_id":"87549","group":"Group1","full_date":"2025-12-04T21:24:24.667Z","date":"2025-12-04","time":"21:24:24"},{"task":"memory_phase","broad_category":"I","image_png":"I_Gabbro_16.png","image_id":64,"category_name":"Gabbro","category":4,"distinct_rating":2.52,"distinct_type":"Bottom","rt":null,"stimulus":"Stimuli_Rocks480/I_Gabbro_16.png","response":null,"trial_type":"image-keyboard-response","trial_index":38,"plugin_version":"2.1.0","time_elapsed":129793,"subject_id":"87549","group":"Group1","full_date":"2025-12-04T21:24:24.667Z","date":"2025-12-04","time":"21:24:24"},{"rt":null,"stimulus":"<p style=\"font-size: 50px; margin: 0; text-align: center;\">+</p>","response":null,"trial_type":"html-keyboard-response","trial_index":39,"plugin_version":"2.1.0","time_elapsed":130796,"subject_id":"87549","group":"Group1","full_date":"2025-12-04T21:24:24.667Z","date":"2025-12-04","time":"21:24:24"},{"task":"memory_phase","broad_category":"I","image_png":"I_Andesite_08.png","image_id":8,"category_name":"Andesite","category":1,"distinct_rating":1.95,"distinct_type":"Bottom","rt":null,"stimulus":"Stimuli_Rocks480/I_Andesite_08.png","response":null,"trial_type":"image-keyboard-response","trial_index":40,"plugin_version":"2.1.0","time_elapsed":133299,"subject_id":"87549","group":"Group1","full_date":"2025-12-04T21:24:24.667Z","date":"2025-12-04","time":"21:24:24"},{"rt":null,"stimulus":"<p style=\"font-size: 50px; margin: 0; text-align: center;\">+</p>","response":null,"trial_type":"html-keyboard-response","trial_index":41,"plugin_version":"2.1.0","time_elapsed":134301,"subject_id":"87549","group":"Group1","full_date":"2025-12-04T21:24:24.667Z","date":"2025-12-04","time":"21:24:24"},{"task":"memory_phase","broad_category":"I","image_png":"I_Pumice_08.png","image_id":136,"category_name":"Pumice","category":9,"distinct_rating":3.1,"distinct_type":"Bottom","rt":null,"stimulus":"Stimuli_Rocks480/I_Pumice_08.png","response":null,"trial_type":"image-keyboard-response","trial_index":42,"plugin_version":"2.1.0","time_elapsed":136804,"subject_id":"87549","group":"Group1","full_date":"2025-12-04T21:24:24.667Z","date":"2025-12-04","time":"21:24:24"},{"rt":null,"stimulus":"<p style=\"font-size: 50px; margin: 0; text-align: center;\">+</p>","response":null,"trial_type":"html-keyboard-response","trial_index":43,"plugin_version":"2.1.0","time_elapsed":137807,"subject_id":"87549","group":"Group1","full_date":"2025-12-04T21:24:24.667Z","date":"2025-12-04","time":"21:24:24"},{"task":"memory_phase","broad_category":"I","image_png":"I_Gabbro_11.png","image_id":59,"category_name":"Gabbro","category":4,"distinct_rating":1.99,"distinct_type":"Bottom","rt":null,"stimulus":"Stimuli_Rocks480/I_Gabbro_11.png","response":null,"trial_type":"image-keyboard-response","trial_index":44,"plugin_version":"2.1.0","time_elapsed":140310,"subject_id":"87549","group":"Group1","full_date":"2025-12-04T21:24:24.667Z","date":"2025-12-04","time":"21:24:24"},{"rt":null,"stimulus":"<p style=\"font-size: 50px; margin: 0; text-align: center;\">+</p>","response":null,"trial_type":"html-keyboard-response","trial_index":45,"plugin_version":"2.1.0","time_elapsed":141313,"subject_id":"87549","group":"Group1","full_date":"2025-12-04T21:24:24.667Z","date":"2025-12-04","time":"21:24:24"},{"task":"memory_phase","broad_category":"I","image_png":"I_Obsidian_05.png","image_id":85,"category_name":"Obsidian","category":6,"distinct_rating":7.32,"distinct_type":"Top","rt":null,"stimulus":"Stimuli_Rocks480/I_Obsidian_05.png","response":null,"trial_type":"image-keyboard-response","trial_index":46,"plugin_version":"2.1.0","time_elapsed":143815,"subject_id":"87549","group":"Group1","full_date":"2025-12-04T21:24:24.667Z","date":"2025-12-04","time":"21:24:24"},{"rt":null,"stimulus":"<p style=\"font-size: 50px; margin: 0; text-align: center;\">+</p>","response":null,"trial_type":"html-keyboard-response","trial_index":47,"plugin_version":"2.1.0","time_elapsed":144818,"subject_id":"87549","group":"Group1","full_date":"2025-12-04T21:24:24.667Z","date":"2025-12-04","time":"21:24:24"},{"task":"memory_phase","broad_category":"I","image_png":"I_Diorite_03.png","image_id":35,"category_name":"Diorite","category":3,"distinct_rating":3.14,"distinct_type":"Bottom","rt":null,"stimulus":"Stimuli_Rocks480/I_Diorite_03.png","response":null,"trial_type":"image-keyboard-response","trial_index":48,"plugin_version":"2.1.0","time_elapsed":147321,"subject_id":"87549","group":"Group1","full_date":"2025-12-04T21:24:24.667Z","date":"2025-12-04","time":"21:24:24"},{"rt":null,"stimulus":"<p style=\"font-size: 50px; margin: 0; text-align: center;\">+</p>","response":null,"trial_type":"html-keyboard-response","trial_index":49,"plugin_version":"2.1.0","time_elapsed":148324,"subject_id":"87549","group":"Group1","full_date":"2025-12-04T21:24:24.667Z","date":"2025-12-04","time":"21:24:24"},{"task":"memory_phase","broad_category":"I","image_png":"I_Andesite_06.png","image_id":6,"category_name":"Andesite","category":1,"distinct_rating":3.17,"distinct_type":"Bottom","rt":null,"stimulus":"Stimuli_Rocks480/I_Andesite_06.png","response":null,"trial_type":"image-keyboard-response","trial_index":50,"plugin_version":"2.1.0","time_elapsed":150827,"subject_id":"87549","group":"Group1","full_date":"2025-12-04T21:24:24.667Z","date":"2025-12-04","time":"21:24:24"},{"rt":null,"stimulus":"<p style=\"font-size: 50px; margin: 0; text-align: center;\">+</p>","response":null,"trial_type":"html-keyboard-response","trial_index":51,"plugin_version":"2.1.0","time_elapsed":151830,"subject_id":"87549","group":"Group1","full_date":"2025-12-04T21:24:24.667Z","date":"2025-12-04","time":"21:24:24"},{"task":"memory_phase","broad_category":"M","image_png":"M_Marble_06.png","image_id":230,"category_name":"Marble","category":15,"distinct_rating":3.4,"distinct_type":"Bottom","rt":null,"stimulus":"Stimuli_Rocks480/M_Marble_06.png","response":null,"trial_type":"image-keyboard-response","trial_index":52,"plugin_version":"2.1.0","time_elapsed":154333,"subject_id":"87549","group":"Group1","full_date":"2025-12-04T21:24:24.667Z","date":"2025-12-04","time":"21:24:24"},{"rt":null,"stimulus":"<p style=\"font-size: 50px; margin: 0; text-align: center;\">+</p>","response":null,"trial_type":"html-keyboard-response","trial_index":53,"plugin_version":"2.1.0","time_elapsed":155336,"subject_id":"87549","group":"Group1","full_date":"2025-12-04T21:24:24.667Z","date":"2025-12-04","time":"21:24:24"},{"task":"memory_phase","broad_category":"I","image_png":"I_Pumice_11.png","image_id":139,"category_name":"Pumice","category":9,"distinct_rating":1.74,"distinct_type":"Bottom","rt":null,"stimulus":"Stimuli_Rocks480/I_Pumice_11.png","response":null,"trial_type":"image-keyboard-response","trial_index":54,"plugin_version":"2.1.0","time_elapsed":157839,"subject_id":"87549","group":"Group1","full_date":"2025-12-04T21:24:24.667Z","date":"2025-12-04","time":"21:24:24"},{"rt":2903,"stimulus":"<p style=\"max-width: 760px; margin: auto; font-size: 35px; line-height: 1.5;\">Press SPACE to continue study phase</p>","response":" ","trial_type":"html-keyboard-response","trial_index":55,"plugin_version":"2.1.0","time_elapsed":160743,"subject_id":"87549","group":"Group1","full_date":"2025-12-04T21:24:24.667Z","date":"2025-12-04","time":"21:24:24"},{"rt":null,"stimulus":"<p style=\"font-size: 50px; margin: 0; text-align: center;\">+</p>","response":null,"trial_type":"html-keyboard-response","trial_index":56,"plugin_version":"2.1.0","time_elapsed":161745,"subject_id":"87549","group":"Group1","full_date":"2025-12-04T21:24:24.667Z","date":"2025-12-04","time":"21:24:24"},{"task":"memory_phase","broad_category":"I","image_png":"I_Pumice_12.png","image_id":140,"category_name":"Pumice","category":9,"distinct_rating":2.97,"distinct_type":"Bottom","rt":null,"stimulus":"Stimuli_Rocks480/I_Pumice_12.png","response":null,"trial_type":"image-keyboard-response","trial_index":57,"plugin_version":"2.1.0","time_elapsed":164249,"subject_id":"87549","group":"Group1","full_date":"2025-12-04T21:24:24.667Z","date":"2025-12-04","time":"21:24:24"},{"rt":null,"stimulus":"<p style=\"font-size: 50px; margin: 0; text-align: center;\">+</p>","response":null,"trial_type":"html-keyboard-response","trial_index":58,"plugin_version":"2.1.0","time_elapsed":165251,"subject_id":"87549","group":"Group1","full_date":"2025-12-04T21:24:24.667Z","date":"2025-12-04","time":"21:24:24"},{"task":"memory_phase","broad_category":"M","image_png":"M_Slate_15.png","image_id":319,"category_name":"Slate","category":20,"distinct_rating":2.13,"distinct_type":"Bottom","rt":null,"stimulus":"Stimuli_Rocks480/M_Slate_15.png","response":null,"trial_type":"image-keyboard-response","trial_index":59,"plugin_version":"2.1.0","time_elapsed":167755,"subject_id":"87549","group":"Group1","full_date":"2025-12-04T21:24:24.667Z","date":"2025-12-04","time":"21:24:24"},{"rt":null,"stimulus":"<p style=\"font-size: 50px; margin: 0; text-align: center;\">+</p>","response":null,"trial_type":"html-keyboard-response","trial_index":60,"plugin_version":"2.1.0","time_elapsed":168757,"subject_id":"87549","group":"Group1","full_date":"2025-12-04T21:24:24.667Z","date":"2025-12-04","time":"21:24:24"},{"task":"memory_phase","broad_category":"S","image_png":"S_Chert_10.png","image_id":362,"category_name":"Chert","category":23,"distinct_rating":7.17,"distinct_type":"Top","rt":null,"stimulus":"Stimuli_Rocks480/S_Chert_10.png","response":null,"trial_type":"image-keyboard-response","trial_index":61,"plugin_version":"2.1.0","time_elapsed":171261,"subject_id":"87549","group":"Group1","full_date":"2025-12-04T21:24:24.667Z","date":"2025-12-04","time":"21:24:24"},{"rt":null,"stimulus":"<p style=\"font-size: 50px; margin: 0; text-align: center;\">+</p>","response":null,"trial_type":"html-keyboard-response","trial_index":62,"plugin_version":"2.1.0","time_elapsed":172263,"subject_id":"87549","group":"Group1","full_date":"2025-12-04T21:24:24.667Z","date":"2025-12-04","time":"21:24:24"},{"task":"memory_phase","broad_category":"M","image_png":"M_Slate_03.png","image_id":307,"category_name":"Slate","category":20,"distinct_rating":1.87,"distinct_type":"Bottom","rt":null,"stimulus":"Stimuli_Rocks480/M_Slate_03.png","response":null,"trial_type":"image-keyboard-response","trial_index":63,"plugin_version":"2.1.0","time_elapsed":174766,"subject_id":"87549","group":"Group1","full_date":"2025-12-04T21:24:24.667Z","date":"2025-12-04","time":"21:24:24"},{"rt":null,"stimulus":"<p style=\"font-size: 50px; margin: 0; text-align: center;\">+</p>","response":null,"trial_type":"html-keyboard-response","trial_index":64,"plugin_version":"2.1.0","time_elapsed":175769,"subject_id":"87549","group":"Group1","full_date":"2025-12-04T21:24:24.667Z","date":"2025-12-04","time":"21:24:24"},{"task":"memory_phase","broad_category":"S","image_png":"S_Rock Salt_01.png","image_id":433,"category_name":"Rock Salt","category":28,"distinct_rating":7.18,"distinct_type":"Top","rt":null,"stimulus":"Stimuli_Rocks480/S_Rock Salt_01.png","response":null,"trial_type":"image-keyboard-response","trial_index":65,"plugin_version":"2.1.0","time_elapsed":178272,"subject_id":"87549","group":"Group1","full_date":"2025-12-04T21:24:24.667Z","date":"2025-12-04","time":"21:24:24"},{"rt":null,"stimulus":"<p style=\"font-size: 50px; margin: 0; text-align: center;\">+</p>","response":null,"trial_type":"html-keyboard-response","trial_index":66,"plugin_version":"2.1.0","time_elapsed":179274,"subject_id":"87549","group":"Group1","full_date":"2025-12-04T21:24:24.667Z","date":"2025-12-04","time":"21:24:24"},{"task":"memory_phase","broad_category":"S","image_png":"S_Dolomite_14.png","image_id":398,"category_name":"Dolomite","category":25,"distinct_rating":1.43,"distinct_type":"Bottom","rt":null,"stimulus":"Stimuli_Rocks480/S_Dolomite_14.png","response":null,"trial_type":"image-keyboard-response","trial_index":67,"plugin_version":"2.1.0","time_elapsed":181777,"subject_id":"87549","group":"Group1","full_date":"2025-12-04T21:24:24.667Z","date":"2025-12-04","time":"21:24:24"},{"rt":null,"stimulus":"<p style=\"font-size: 50px; margin: 0; text-align: center;\">+</p>","response":null,"trial_type":"html-keyboard-response","trial_index":68,"plugin_version":"2.1.0","time_elapsed":182779,"subject_id":"87549","group":"Group1","full_date":"2025-12-04T21:24:24.667Z","date":"2025-12-04","time":"21:24:24"},{"task":"memory_phase","broad_category":"I","image_png":"I_Rhyolite_11.png","image_id":155,"category_name":"Rhyolite","category":10,"distinct_rating":1.73,"distinct_type":"Bottom","rt":null,"stimulus":"Stimuli_Rocks480/I_Rhyolite_11.png","response":null,"trial_type":"image-keyboard-response","trial_index":69,"plugin_version":"2.1.0","time_elapsed":185283,"subject_id":"87549","group":"Group1","full_date":"2025-12-04T21:24:24.667Z","date":"2025-12-04","time":"21:24:24"},{"rt":null,"stimulus":"<p style=\"font-size: 50px; margin: 0; text-align: center;\">+</p>","response":null,"trial_type":"html-keyboard-response","trial_index":70,"plugin_version":"2.1.0","time_elapsed":186285,"subject_id":"87549","group":"Group1","full_date":"2025-12-04T21:24:24.667Z","date":"2025-12-04","time":"21:24:24"},{"task":"memory_phase","broad_category":"M","image_png":"M_Quartzite_08.png","image_id":280,"category_name":"Quartzite","category":18,"distinct_rating":2.15,"distinct_type":"Bottom","rt":null,"stimulus":"Stimuli_Rocks480/M_Quartzite_08.png","response":null,"trial_type":"image-keyboard-response","trial_index":71,"plugin_version":"2.1.0","time_elapsed":188788,"subject_id":"87549","group":"Group1","full_date":"2025-12-04T21:24:24.667Z","date":"2025-12-04","time":"21:24:24"},{"rt":null,"stimulus":"<p style=\"font-size: 50px; margin: 0; text-align: center;\">+</p>","response":null,"trial_type":"html-keyboard-response","trial_index":72,"plugin_version":"2.1.0","time_elapsed":189790,"subject_id":"87549","group":"Group1","full_date":"2025-12-04T21:24:24.667Z","date":"2025-12-04","time":"21:24:24"},{"task":"memory_phase","broad_category":"M","image_png":"M_Gneiss_06.png","image_id":198,"category_name":"Gneiss","category":13,"distinct_rating":2.65,"distinct_type":"Bottom","rt":null,"stimulus":"Stimuli_Rocks480/M_Gneiss_06.png","response":null,"trial_type":"image-keyboard-response","trial_index":73,"plugin_version":"2.1.0","time_elapsed":192293,"subject_id":"87549","group":"Group1","full_date":"2025-12-04T21:24:24.667Z","date":"2025-12-04","time":"21:24:24"},{"rt":null,"stimulus":"<p style=\"font-size: 50px; margin: 0; text-align: center;\">+</p>","response":null,"trial_type":"html-keyboard-response","trial_index":74,"plugin_version":"2.1.0","time_elapsed":193295,"subject_id":"87549","group":"Group1","full_date":"2025-12-04T21:24:24.667Z","date":"2025-12-04","time":"21:24:24"},{"task":"memory_phase","broad_category":"M","image_png":"M_Gneiss_13.png","image_id":205,"category_name":"Gneiss","category":13,"distinct_rating":3.26,"distinct_type":"Bottom","rt":null,"stimulus":"Stimuli_Rocks480/M_Gneiss_13.png","response":null,"trial_type":"image-keyboard-response","trial_index":75,"plugin_version":"2.1.0","time_elapsed":195799,"subject_id":"87549","group":"Group1","full_date":"2025-12-04T21:24:24.667Z","date":"2025-12-04","time":"21:24:24"},{"rt":null,"stimulus":"<p style=\"font-size: 50px; margin: 0; text-align: center;\">+</p>","response":null,"trial_type":"html-keyboard-response","trial_index":76,"plugin_version":"2.1.0","time_elapsed":196801,"subject_id":"87549","group":"Group1","full_date":"2025-12-04T21:24:24.667Z","date":"2025-12-04","time":"21:24:24"},{"task":"memory_phase","broad_category":"I","image_png":"I_Pegmatite_16.png","image_id":112,"category_name":"Pegmatite","category":7,"distinct_rating":7.03,"distinct_type":"Top","rt":null,"stimulus":"Stimuli_Rocks480/I_Pegmatite_16.png","response":null,"trial_type":"image-keyboard-response","trial_index":77,"plugin_version":"2.1.0","time_elapsed":199305,"subject_id":"87549","group":"Group1","full_date":"2025-12-04T21:24:24.667Z","date":"2025-12-04","time":"21:24:24"},{"rt":null,"stimulus":"<p style=\"font-size: 50px; margin: 0; text-align: center;\">+</p>","response":null,"trial_type":"html-keyboard-response","trial_index":78,"plugin_version":"2.1.0","time_elapsed":200307,"subject_id":"87549","group":"Group1","full_date":"2025-12-04T21:24:24.667Z","date":"2025-12-04","time":"21:24:24"},{"task":"memory_phase","broad_category":"M","image_png":"M_Marble_16.png","image_id":240,"category_name":"Marble","category":15,"distinct_rating":2.57,"distinct_type":"Bottom","rt":null,"stimulus":"Stimuli_Rocks480/M_Marble_16.png","response":null,"trial_type":"image-keyboard-response","trial_index":79,"plugin_version":"2.1.0","time_elapsed":202810,"subject_id":"87549","group":"Group1","full_date":"2025-12-04T21:24:24.667Z","date":"2025-12-04","time":"21:24:24"},{"rt":null,"stimulus":"<p style=\"font-size: 50px; margin: 0; text-align: center;\">+</p>","response":null,"trial_type":"html-keyboard-response","trial_index":80,"plugin_version":"2.1.0","time_elapsed":203812,"subject_id":"87549","group":"Group1","full_date":"2025-12-04T21:24:24.667Z","date":"2025-12-04","time":"21:24:24"},{"task":"memory_phase","broad_category":"M","image_png":"M_Gneiss_05.png","image_id":197,"category_name":"Gneiss","category":13,"distinct_rating":2.97,"distinct_type":"Bottom","rt":null,"stimulus":"Stimuli_Rocks480/M_Gneiss_05.png","response":null,"trial_type":"image-keyboard-response","trial_index":81,"plugin_version":"2.1.0","time_elapsed":206316,"subject_id":"87549","group":"Group1","full_date":"2025-12-04T21:24:24.667Z","date":"2025-12-04","time":"21:24:24"},{"rt":null,"stimulus":"<p style=\"font-size: 50px; margin: 0; text-align: center;\">+</p>","response":null,"trial_type":"html-keyboard-response","trial_index":82,"plugin_version":"2.1.0","time_elapsed":207318,"subject_id":"87549","group":"Group1","full_date":"2025-12-04T21:24:24.667Z","date":"2025-12-04","time":"21:24:24"},{"task":"memory_phase","broad_category":"M","image_png":"M_Phyllite_10.png","image_id":266,"category_name":"Phyllite","category":17,"distinct_rating":2.6,"distinct_type":"Bottom","rt":null,"stimulus":"Stimuli_Rocks480/M_Phyllite_10.png","response":null,"trial_type":"image-keyboard-response","trial_index":83,"plugin_version":"2.1.0","time_elapsed":209821,"subject_id":"87549","group":"Group1","full_date":"2025-12-04T21:24:24.667Z","date":"2025-12-04","time":"21:24:24"},{"rt":null,"stimulus":"<p style=\"font-size: 50px; margin: 0; text-align: center;\">+</p>","response":null,"trial_type":"html-keyboard-response","trial_index":84,"plugin_version":"2.1.0","time_elapsed":210823,"subject_id":"87549","group":"Group1","full_date":"2025-12-04T21:24:24.667Z","date":"2025-12-04","time":"21:24:24"},{"task":"memory_phase","broad_category":"I","image_png":"I_Basalt_09.png","image_id":25,"category_name":"Basalt","category":2,"distinct_rating":1.89,"distinct_type":"Bottom","rt":null,"stimulus":"Stimuli_Rocks480/I_Basalt_09.png","response":null,"trial_type":"image-keyboard-response","trial_index":85,"plugin_version":"2.1.0","time_elapsed":213326,"subject_id":"87549","group":"Group1","full_date":"2025-12-04T21:24:24.667Z","date":"2025-12-04","time":"21:24:24"},{"rt":null,"stimulus":"<p style=\"font-size: 50px; margin: 0; text-align: center;\">+</p>","response":null,"trial_type":"html-keyboard-response","trial_index":86,"plugin_version":"2.1.0","time_elapsed":214328,"subject_id":"87549","group":"Group1","full_date":"2025-12-04T21:24:24.667Z","date":"2025-12-04","time":"21:24:24"},{"task":"memory_phase","broad_category":"S","image_png":"S_Breccia_11.png","image_id":347,"category_name":"Breccia","category":22,"distinct_rating":6.7,"distinct_type":"Top","rt":null,"stimulus":"Stimuli_Rocks480/S_Breccia_11.png","response":null,"trial_type":"image-keyboard-response","trial_index":87,"plugin_version":"2.1.0","time_elapsed":216831,"subject_id":"87549","group":"Group1","full_date":"2025-12-04T21:24:24.667Z","date":"2025-12-04","time":"21:24:24"},{"rt":null,"stimulus":"<p style=\"font-size: 50px; margin: 0; text-align: center;\">+</p>","response":null,"trial_type":"html-keyboard-response","trial_index":88,"plugin_version":"2.1.0","time_elapsed":217834,"subject_id":"87549","group":"Group1","full_date":"2025-12-04T21:24:24.667Z","date":"2025-12-04","time":"21:24:24"},{"task":"memory_phase","broad_category":"S","image_png":"S_Dolomite_12.png","image_id":396,"category_name":"Dolomite","category":25,"distinct_rating":1.85,"distinct_type":"Bottom","rt":null,"stimulus":"Stimuli_Rocks480/S_Dolomite_12.png","response":null,"trial_type":"image-keyboard-response","trial_index":89,"plugin_version":"2.1.0","time_elapsed":220338,"subject_id":"87549","group":"Group1","full_date":"2025-12-04T21:24:24.667Z","date":"2025-12-04","time":"21:24:24"},{"rt":null,"stimulus":"<p style=\"font-size: 50px; margin: 0; text-align: center;\">+</p>","response":null,"trial_type":"html-keyboard-response","trial_index":90,"plugin_version":"2.1.0","time_elapsed":221340,"subject_id":"87549","group":"Group1","full_date":"2025-12-04T21:24:24.667Z","date":"2025-12-04","time":"21:24:24"},{"task":"memory_phase","broad_category":"M","image_png":"M_Marble_04.png","image_id":228,"category_name":"Marble","category":15,"distinct_rating":3.15,"distinct_type":"Bottom","rt":null,"stimulus":"Stimuli_Rocks480/M_Marble_04.png","response":null,"trial_type":"image-keyboard-response","trial_index":91,"plugin_version":"2.1.0","time_elapsed":223843,"subject_id":"87549","group":"Group1","full_date":"2025-12-04T21:24:24.667Z","date":"2025-12-04","time":"21:24:24"},{"rt":null,"stimulus":"<p style=\"font-size: 50px; margin: 0; text-align: center;\">+</p>","response":null,"trial_type":"html-keyboard-response","trial_index":92,"plugin_version":"2.1.0","time_elapsed":224846,"subject_id":"87549","group":"Group1","full_date":"2025-12-04T21:24:24.667Z","date":"2025-12-04","time":"21:24:24"},{"task":"memory_phase","broad_category":"S","image_png":"S_Conglomerate_05.png","image_id":373,"category_name":"Conglomerate","category":24,"distinct_rating":7.32,"distinct_type":"Top","rt":null,"stimulus":"Stimuli_Rocks480/S_Conglomerate_05.png","response":null,"trial_type":"image-keyboard-response","trial_index":93,"plugin_version":"2.1.0","time_elapsed":227349,"subject_id":"87549","group":"Group1","full_date":"2025-12-04T21:24:24.667Z","date":"2025-12-04","time":"21:24:24"},{"rt":null,"stimulus":"<p style=\"font-size: 50px; margin: 0; text-align: center;\">+</p>","response":null,"trial_type":"html-keyboard-response","trial_index":94,"plugin_version":"2.1.0","time_elapsed":228351,"subject_id":"87549","group":"Group1","full_date":"2025-12-04T21:24:24.667Z","date":"2025-12-04","time":"21:24:24"},{"task":"memory_phase","broad_category":"I","image_png":"I_Diorite_04.png","image_id":36,"category_name":"Diorite","category":3,"distinct_rating":2.98,"distinct_type":"Bottom","rt":null,"stimulus":"Stimuli_Rocks480/I_Diorite_04.png","response":null,"trial_type":"image-keyboard-response","trial_index":95,"plugin_version":"2.1.0","time_elapsed":230855,"subject_id":"87549","group":"Group1","full_date":"2025-12-04T21:24:24.667Z","date":"2025-12-04","time":"21:24:24"},{"rt":null,"stimulus":"<p style=\"font-size: 50px; margin: 0; text-align: center;\">+</p>","response":null,"trial_type":"html-keyboard-response","trial_index":96,"plugin_version":"2.1.0","time_elapsed":231858,"subject_id":"87549","group":"Group1","full_date":"2025-12-04T21:24:24.667Z","date":"2025-12-04","time":"21:24:24"},{"task":"memory_phase","broad_category":"M","image_png":"M_Phyllite_03.png","image_id":259,"category_name":"Phyllite","category":17,"distinct_rating":2.5,"distinct_type":"Bottom","rt":null,"stimulus":"Stimuli_Rocks480/M_Phyllite_03.png","response":null,"trial_type":"image-keyboard-response","trial_index":97,"plugin_version":"2.1.0","time_elapsed":234360,"subject_id":"87549","group":"Group1","full_date":"2025-12-04T21:24:24.667Z","date":"2025-12-04","time":"21:24:24"},{"rt":null,"stimulus":"<p style=\"font-size: 50px; margin: 0; text-align: center;\">+</p>","response":null,"trial_type":"html-keyboard-response","trial_index":98,"plugin_version":"2.1.0","time_elapsed":235363,"subject_id":"87549","group":"Group1","full_date":"2025-12-04T21:24:24.667Z","date":"2025-12-04","time":"21:24:24"},{"task":"memory_phase","broad_category":"M","image_png":"M_Quartzite_05.png","image_id":277,"category_name":"Quartzite","category":18,"distinct_rating":2.23,"distinct_type":"Bottom","rt":null,"stimulus":"Stimuli_Rocks480/M_Quartzite_05.png","response":null,"trial_type":"image-keyboard-response","trial_index":99,"plugin_version":"2.1.0","time_elapsed":237866,"subject_id":"87549","group":"Group1","full_date":"2025-12-04T21:24:24.667Z","date":"2025-12-04","time":"21:24:24"},{"rt":null,"stimulus":"<p style=\"font-size: 50px; margin: 0; text-align: center;\">+</p>","response":null,"trial_type":"html-keyboard-response","trial_index":100,"plugin_version":"2.1.0","time_elapsed":238868,"subject_id":"87549","group":"Group1","full_date":"2025-12-04T21:24:24.667Z","date":"2025-12-04","time":"21:24:24"},{"task":"memory_phase","broad_category":"I","image_png":"I_Basalt_02.png","image_id":18,"category_name":"Basalt","category":2,"distinct_rating":1.84,"distinct_type":"Bottom","rt":null,"stimulus":"Stimuli_Rocks480/I_Basalt_02.png","response":null,"trial_type":"image-keyboard-response","trial_index":101,"plugin_version":"2.1.0","time_elapsed":241371,"subject_id":"87549","group":"Group1","full_date":"2025-12-04T21:24:24.667Z","date":"2025-12-04","time":"21:24:24"},{"rt":null,"stimulus":"<p style=\"font-size: 50px; margin: 0; text-align: center;\">+</p>","response":null,"trial_type":"html-keyboard-response","trial_index":102,"plugin_version":"2.1.0","time_elapsed":242374,"subject_id":"87549","group":"Group1","full_date":"2025-12-04T21:24:24.667Z","date":"2025-12-04","time":"21:24:24"},{"task":"memory_phase","broad_category":"S","image_png":"S_Sandstone_15.png","image_id":463,"category_name":"Sandstone","category":29,"distinct_rating":2,"distinct_type":"Bottom","rt":null,"stimulus":"Stimuli_Rocks480/S_Sandstone_15.png","response":null,"trial_type":"image-keyboard-response","trial_index":103,"plugin_version":"2.1.0","time_elapsed":244877,"subject_id":"87549","group":"Group1","full_date":"2025-12-04T21:24:24.667Z","date":"2025-12-04","time":"21:24:24"},{"rt":null,"stimulus":"<p style=\"font-size: 50px; margin: 0; text-align: center;\">+</p>","response":null,"trial_type":"html-keyboard-response","trial_index":104,"plugin_version":"2.1.0","time_elapsed":245880,"subject_id":"87549","group":"Group1","full_date":"2025-12-04T21:24:24.667Z","date":"2025-12-04","time":"21:24:24"},{"task":"memory_phase","broad_category":"S","image_png":"S_Sandstone_16.png","image_id":464,"category_name":"Sandstone","category":29,"distinct_rating":1.93,"distinct_type":"Bottom","rt":null,"stimulus":"Stimuli_Rocks480/S_Sandstone_16.png","response":null,"trial_type":"image-keyboard-response","trial_index":105,"plugin_version":"2.1.0","time_elapsed":248383,"subject_id":"87549","group":"Group1","full_date":"2025-12-04T21:24:24.667Z","date":"2025-12-04","time":"21:24:24"},{"rt":11975,"stimulus":"<p style=\"max-width: 760px; margin: auto; font-size: 35px; line-height: 1.5;\">You have completed 1 study phase. Now, we'll show you all the images again 2 more times.<br><br>Press SPACE to continue</p>","response":" ","trial_type":"html-keyboard-response","trial_index":106,"plugin_version":"2.1.0","time_elapsed":260359,"subject_id":"87549","group":"Group1","full_date":"2025-12-04T21:24:24.667Z","date":"2025-12-04","time":"21:24:24"},{"rt":null,"stimulus":"<p style=\"font-size: 50px; margin: 0; text-align: center;\">+</p>","response":null,"trial_type":"html-keyboard-response","trial_index":107,"plugin_version":"2.1.0","time_elapsed":261362,"subject_id":"87549","group":"Group1","full_date":"2025-12-04T21:24:24.667Z","date":"2025-12-04","time":"21:24:24"},{"task":"memory_phase","broad_category":"I","image_png":"I_Pumice_12.png","image_id":140,"category_name":"Pumice","category":9,"distinct_rating":2.97,"distinct_type":"Bottom","rt":null,"stimulus":"Stimuli_Rocks480/I_Pumice_12.png","response":null,"trial_type":"image-keyboard-response","trial_index":108,"plugin_version":"2.1.0","time_elapsed":263865,"subject_id":"87549","group":"Group1","full_date":"2025-12-04T21:24:24.667Z","date":"2025-12-04","time":"21:24:24"},{"rt":null,"stimulus":"<p style=\"font-size: 50px; margin: 0; text-align: center;\">+</p>","response":null,"trial_type":"html-keyboard-response","trial_index":109,"plugin_version":"2.1.0","time_elapsed":264866,"subject_id":"87549","group":"Group1","full_date":"2025-12-04T21:24:24.667Z","date":"2025-12-04","time":"21:24:24"},{"task":"memory_phase","broad_category":"M","image_png":"M_Phyllite_03.png","image_id":259,"category_name":"Phyllite","category":17,"distinct_rating":2.5,"distinct_type":"Bottom","rt":null,"stimulus":"Stimuli_Rocks480/M_Phyllite_03.png","response":null,"trial_type":"image-keyboard-response","trial_index":110,"plugin_version":"2.1.0","time_elapsed":267370,"subject_id":"87549","group":"Group1","full_date":"2025-12-04T21:24:24.667Z","date":"2025-12-04","time":"21:24:24"},{"rt":null,"stimulus":"<p style=\"font-size: 50px; margin: 0; text-align: center;\">+</p>","response":null,"trial_type":"html-keyboard-response","trial_index":111,"plugin_version":"2.1.0","time_elapsed":268372,"subject_id":"87549","group":"Group1","full_date":"2025-12-04T21:24:24.667Z","date":"2025-12-04","time":"21:24:24"},{"task":"memory_phase","broad_category":"M","image_png":"M_Quartzite_05.png","image_id":277,"category_name":"Quartzite","category":18,"distinct_rating":2.23,"distinct_type":"Bottom","rt":null,"stimulus":"Stimuli_Rocks480/M_Quartzite_05.png","response":null,"trial_type":"image-keyboard-response","trial_index":112,"plugin_version":"2.1.0","time_elapsed":270875,"subject_id":"87549","group":"Group1","full_date":"2025-12-04T21:24:24.667Z","date":"2025-12-04","time":"21:24:24"},{"rt":null,"stimulus":"<p style=\"font-size: 50px; margin: 0; text-align: center;\">+</p>","response":null,"trial_type":"html-keyboard-response","trial_index":113,"plugin_version":"2.1.0","time_elapsed":271876,"subject_id":"87549","group":"Group1","full_date":"2025-12-04T21:24:24.667Z","date":"2025-12-04","time":"21:24:24"},{"task":"memory_phase","broad_category":"S","image_png":"S_Rock Gypsum_04.png","image_id":420,"category_name":"Rock Gypsum","category":27,"distinct_rating":7.61,"distinct_type":"Top","rt":null,"stimulus":"Stimuli_Rocks480/S_Rock Gypsum_04.png","response":null,"trial_type":"image-keyboard-response","trial_index":114,"plugin_version":"2.1.0","time_elapsed":274379,"subject_id":"87549","group":"Group1","full_date":"2025-12-04T21:24:24.667Z","date":"2025-12-04","time":"21:24:24"},{"rt":null,"stimulus":"<p style=\"font-size: 50px; margin: 0; text-align: center;\">+</p>","response":null,"trial_type":"html-keyboard-response","trial_index":115,"plugin_version":"2.1.0","time_elapsed":275380,"subject_id":"87549","group":"Group1","full_date":"2025-12-04T21:24:24.667Z","date":"2025-12-04","time":"21:24:24"},{"task":"memory_phase","broad_category":"S","image_png":"S_Conglomerate_05.png","image_id":373,"category_name":"Conglomerate","category":24,"distinct_rating":7.32,"distinct_type":"Top","rt":null,"stimulus":"Stimuli_Rocks480/S_Conglomerate_05.png","response":null,"trial_type":"image-keyboard-response","trial_index":116,"plugin_version":"2.1.0","time_elapsed":277883,"subject_id":"87549","group":"Group1","full_date":"2025-12-04T21:24:24.667Z","date":"2025-12-04","time":"21:24:24"},{"rt":null,"stimulus":"<p style=\"font-size: 50px; margin: 0; text-align: center;\">+</p>","response":null,"trial_type":"html-keyboard-response","trial_index":117,"plugin_version":"2.1.0","time_elapsed":278886,"subject_id":"87549","group":"Group1","full_date":"2025-12-04T21:24:24.667Z","date":"2025-12-04","time":"21:24:24"},{"task":"memory_phase","broad_category":"I","image_png":"I_Diorite_03.png","image_id":35,"category_name":"Diorite","category":3,"distinct_rating":3.14,"distinct_type":"Bottom","rt":null,"stimulus":"Stimuli_Rocks480/I_Diorite_03.png","response":null,"trial_type":"image-keyboard-response","trial_index":118,"plugin_version":"2.1.0","time_elapsed":281389,"subject_id":"87549","group":"Group1","full_date":"2025-12-04T21:24:24.667Z","date":"2025-12-04","time":"21:24:24"},{"rt":null,"stimulus":"<p style=\"font-size: 50px; margin: 0; text-align: center;\">+</p>","response":null,"trial_type":"html-keyboard-response","trial_index":119,"plugin_version":"2.1.0","time_elapsed":282392,"subject_id":"87549","group":"Group1","full_date":"2025-12-04T21:24:24.667Z","date":"2025-12-04","time":"21:24:24"},{"task":"memory_phase","broad_category":"I","image_png":"I_Gabbro_11.png","image_id":59,"category_name":"Gabbro","category":4,"distinct_rating":1.99,"distinct_type":"Bottom","rt":null,"stimulus":"Stimuli_Rocks480/I_Gabbro_11.png","response":null,"trial_type":"image-keyboard-response","trial_index":120,"plugin_version":"2.1.0","time_elapsed":284898,"subject_id":"87549","group":"Group1","full_date":"2025-12-04T21:24:24.667Z","date":"2025-12-04","time":"21:24:24"},{"rt":null,"stimulus":"<p style=\"font-size: 50px; margin: 0; text-align: center;\">+</p>","response":null,"trial_type":"html-keyboard-response","trial_index":121,"plugin_version":"2.1.0","time_elapsed":285901,"subject_id":"87549","group":"Group1","full_date":"2025-12-04T21:24:24.667Z","date":"2025-12-04","time":"21:24:24"},{"task":"memory_phase","broad_category":"I","image_png":"I_Pumice_11.png","image_id":139,"category_name":"Pumice","category":9,"distinct_rating":1.74,"distinct_type":"Bottom","rt":null,"stimulus":"Stimuli_Rocks480/I_Pumice_11.png","response":null,"trial_type":"image-keyboard-response","trial_index":122,"plugin_version":"2.1.0","time_elapsed":288405,"subject_id":"87549","group":"Group1","full_date":"2025-12-04T21:24:24.667Z","date":"2025-12-04","time":"21:24:24"},{"rt":null,"stimulus":"<p style=\"font-size: 50px; margin: 0; text-align: center;\">+</p>","response":null,"trial_type":"html-keyboard-response","trial_index":123,"plugin_version":"2.1.0","time_elapsed":289407,"subject_id":"87549","group":"Group1","full_date":"2025-12-04T21:24:24.667Z","date":"2025-12-04","time":"21:24:24"},{"task":"memory_phase","broad_category":"M","image_png":"M_Marble_04.png","image_id":228,"category_name":"Marble","category":15,"distinct_rating":3.15,"distinct_type":"Bottom","rt":null,"stimulus":"Stimuli_Rocks480/M_Marble_04.png","response":null,"trial_type":"image-keyboard-response","trial_index":124,"plugin_version":"2.1.0","time_elapsed":291910,"subject_id":"87549","group":"Group1","full_date":"2025-12-04T21:24:24.667Z","date":"2025-12-04","time":"21:24:24"},{"rt":null,"stimulus":"<p style=\"font-size: 50px; margin: 0; text-align: center;\">+</p>","response":null,"trial_type":"html-keyboard-response","trial_index":125,"plugin_version":"2.1.0","time_elapsed":292913,"subject_id":"87549","group":"Group1","full_date":"2025-12-04T21:24:24.667Z","date":"2025-12-04","time":"21:24:24"},{"task":"memory_phase","broad_category":"I","image_png":"I_Andesite_10.png","image_id":10,"category_name":"Andesite","category":1,"distinct_rating":3.15,"distinct_type":"Bottom","rt":null,"stimulus":"Stimuli_Rocks480/I_Andesite_10.png","response":null,"trial_type":"image-keyboard-response","trial_index":126,"plugin_version":"2.1.0","time_elapsed":295416,"subject_id":"87549","group":"Group1","full_date":"2025-12-04T21:24:24.667Z","date":"2025-12-04","time":"21:24:24"},{"rt":null,"stimulus":"<p style=\"font-size: 50px; margin: 0; text-align: center;\">+</p>","response":null,"trial_type":"html-keyboard-response","trial_index":127,"plugin_version":"2.1.0","time_elapsed":296418,"subject_id":"87549","group":"Group1","full_date":"2025-12-04T21:24:24.667Z","date":"2025-12-04","time":"21:24:24"},{"task":"memory_phase","broad_category":"I","image_png":"I_Pegmatite_10.png","image_id":106,"category_name":"Pegmatite","category":7,"distinct_rating":7.66,"distinct_type":"Top","rt":null,"stimulus":"Stimuli_Rocks480/I_Pegmatite_10.png","response":null,"trial_type":"image-keyboard-response","trial_index":128,"plugin_version":"2.1.0","time_elapsed":298922,"subject_id":"87549","group":"Group1","full_date":"2025-12-04T21:24:24.667Z","date":"2025-12-04","time":"21:24:24"},{"rt":null,"stimulus":"<p style=\"font-size: 50px; margin: 0; text-align: center;\">+</p>","response":null,"trial_type":"html-keyboard-response","trial_index":129,"plugin_version":"2.1.0","time_elapsed":299924,"subject_id":"87549","group":"Group1","full_date":"2025-12-04T21:24:24.667Z","date":"2025-12-04","time":"21:24:24"},{"task":"memory_phase","broad_category":"S","image_png":"S_Sandstone_03.png","image_id":451,"category_name":"Sandstone","category":29,"distinct_rating":1.86,"distinct_type":"Bottom","rt":null,"stimulus":"Stimuli_Rocks480/S_Sandstone_03.png","response":null,"trial_type":"image-keyboard-response","trial_index":130,"plugin_version":"2.1.0","time_elapsed":302427,"subject_id":"87549","group":"Group1","full_date":"2025-12-04T21:24:24.667Z","date":"2025-12-04","time":"21:24:24"},{"rt":null,"stimulus":"<p style=\"font-size: 50px; margin: 0; text-align: center;\">+</p>","response":null,"trial_type":"html-keyboard-response","trial_index":131,"plugin_version":"2.1.0","time_elapsed":303430,"subject_id":"87549","group":"Group1","full_date":"2025-12-04T21:24:24.667Z","date":"2025-12-04","time":"21:24:24"},{"task":"memory_phase","broad_category":"I","image_png":"I_Basalt_09.png","image_id":25,"category_name":"Basalt","category":2,"distinct_rating":1.89,"distinct_type":"Bottom","rt":null,"stimulus":"Stimuli_Rocks480/I_Basalt_09.png","response":null,"trial_type":"image-keyboard-response","trial_index":132,"plugin_version":"2.1.0","time_elapsed":305933,"subject_id":"87549","group":"Group1","full_date":"2025-12-04T21:24:24.667Z","date":"2025-12-04","time":"21:24:24"},{"rt":null,"stimulus":"<p style=\"font-size: 50px; margin: 0; text-align: center;\">+</p>","response":null,"trial_type":"html-keyboard-response","trial_index":133,"plugin_version":"2.1.0","time_elapsed":306936,"subject_id":"87549","group":"Group1","full_date":"2025-12-04T21:24:24.667Z","date":"2025-12-04","time":"21:24:24"},{"task":"memory_phase","broad_category":"M","image_png":"M_Quartzite_08.png","image_id":280,"category_name":"Quartzite","category":18,"distinct_rating":2.15,"distinct_type":"Bottom","rt":null,"stimulus":"Stimuli_Rocks480/M_Quartzite_08.png","response":null,"trial_type":"image-keyboard-response","trial_index":134,"plugin_version":"2.1.0","time_elapsed":309439,"subject_id":"87549","group":"Group1","full_date":"2025-12-04T21:24:24.667Z","date":"2025-12-04","time":"21:24:24"},{"rt":null,"stimulus":"<p style=\"font-size: 50px; margin: 0; text-align: center;\">+</p>","response":null,"trial_type":"html-keyboard-response","trial_index":135,"plugin_version":"2.1.0","time_elapsed":310441,"subject_id":"87549","group":"Group1","full_date":"2025-12-04T21:24:24.667Z","date":"2025-12-04","time":"21:24:24"},{"task":"memory_phase","broad_category":"S","image_png":"S_Shale_12.png","image_id":476,"category_name":"Shale","category":30,"distinct_rating":2.48,"distinct_type":"Bottom","rt":null,"stimulus":"Stimuli_Rocks480/S_Shale_12.png","response":null,"trial_type":"image-keyboard-response","trial_index":136,"plugin_version":"2.1.0","time_elapsed":312944,"subject_id":"87549","group":"Group1","full_date":"2025-12-04T21:24:24.667Z","date":"2025-12-04","time":"21:24:24"},{"rt":null,"stimulus":"<p style=\"font-size: 50px; margin: 0; text-align: center;\">+</p>","response":null,"trial_type":"html-keyboard-response","trial_index":137,"plugin_version":"2.1.0","time_elapsed":313947,"subject_id":"87549","group":"Group1","full_date":"2025-12-04T21:24:24.667Z","date":"2025-12-04","time":"21:24:24"},{"task":"memory_phase","broad_category":"I","image_png":"I_Gabbro_08.png","image_id":56,"category_name":"Gabbro","category":4,"distinct_rating":3.02,"distinct_type":"Bottom","rt":null,"stimulus":"Stimuli_Rocks480/I_Gabbro_08.png","response":null,"trial_type":"image-keyboard-response","trial_index":138,"plugin_version":"2.1.0","time_elapsed":316450,"subject_id":"87549","group":"Group1","full_date":"2025-12-04T21:24:24.667Z","date":"2025-12-04","time":"21:24:24"},{"rt":null,"stimulus":"<p style=\"font-size: 50px; margin: 0; text-align: center;\">+</p>","response":null,"trial_type":"html-keyboard-response","trial_index":139,"plugin_version":"2.1.0","time_elapsed":317453,"subject_id":"87549","group":"Group1","full_date":"2025-12-04T21:24:24.667Z","date":"2025-12-04","time":"21:24:24"},{"task":"memory_phase","broad_category":"I","image_png":"I_Basalt_01.png","image_id":17,"category_name":"Basalt","category":2,"distinct_rating":1.92,"distinct_type":"Bottom","rt":null,"stimulus":"Stimuli_Rocks480/I_Basalt_01.png","response":null,"trial_type":"image-keyboard-response","trial_index":140,"plugin_version":"2.1.0","time_elapsed":319956,"subject_id":"87549","group":"Group1","full_date":"2025-12-04T21:24:24.667Z","date":"2025-12-04","time":"21:24:24"},{"rt":null,"stimulus":"<p style=\"font-size: 50px; margin: 0; text-align: center;\">+</p>","response":null,"trial_type":"html-keyboard-response","trial_index":141,"plugin_version":"2.1.0","time_elapsed":320958,"subject_id":"87549","group":"Group1","full_date":"2025-12-04T21:24:24.667Z","date":"2025-12-04","time":"21:24:24"},{"task":"memory_phase","broad_category":"I","image_png":"I_Diorite_04.png","image_id":36,"category_name":"Diorite","category":3,"distinct_rating":2.98,"distinct_type":"Bottom","rt":null,"stimulus":"Stimuli_Rocks480/I_Diorite_04.png","response":null,"trial_type":"image-keyboard-response","trial_index":142,"plugin_version":"2.1.0","time_elapsed":323462,"subject_id":"87549","group":"Group1","full_date":"2025-12-04T21:24:24.667Z","date":"2025-12-04","time":"21:24:24"},{"rt":null,"stimulus":"<p style=\"font-size: 50px; margin: 0; text-align: center;\">+</p>","response":null,"trial_type":"html-keyboard-response","trial_index":143,"plugin_version":"2.1.0","time_elapsed":324464,"subject_id":"87549","group":"Group1","full_date":"2025-12-04T21:24:24.667Z","date":"2025-12-04","time":"21:24:24"},{"task":"memory_phase","broad_category":"M","image_png":"M_Phyllite_10.png","image_id":266,"category_name":"Phyllite","category":17,"distinct_rating":2.6,"distinct_type":"Bottom","rt":null,"stimulus":"Stimuli_Rocks480/M_Phyllite_10.png","response":null,"trial_type":"image-keyboard-response","trial_index":144,"plugin_version":"2.1.0","time_elapsed":326968,"subject_id":"87549","group":"Group1","full_date":"2025-12-04T21:24:24.667Z","date":"2025-12-04","time":"21:24:24"},{"rt":null,"stimulus":"<p style=\"font-size: 50px; margin: 0; text-align: center;\">+</p>","response":null,"trial_type":"html-keyboard-response","trial_index":145,"plugin_version":"2.1.0","time_elapsed":327970,"subject_id":"87549","group":"Group1","full_date":"2025-12-04T21:24:24.667Z","date":"2025-12-04","time":"21:24:24"},{"task":"memory_phase","broad_category":"I","image_png":"I_Pumice_08.png","image_id":136,"category_name":"Pumice","category":9,"distinct_rating":3.1,"distinct_type":"Bottom","rt":null,"stimulus":"Stimuli_Rocks480/I_Pumice_08.png","response":null,"trial_type":"image-keyboard-response","trial_index":146,"plugin_version":"2.1.0","time_elapsed":330473,"subject_id":"87549","group":"Group1","full_date":"2025-12-04T21:24:24.667Z","date":"2025-12-04","time":"21:24:24"},{"rt":null,"stimulus":"<p style=\"font-size: 50px; margin: 0; text-align: center;\">+</p>","response":null,"trial_type":"html-keyboard-response","trial_index":147,"plugin_version":"2.1.0","time_elapsed":331475,"subject_id":"87549","group":"Group1","full_date":"2025-12-04T21:24:24.667Z","date":"2025-12-04","time":"21:24:24"},{"task":"memory_phase","broad_category":"I","image_png":"I_Gabbro_16.png","image_id":64,"category_name":"Gabbro","category":4,"distinct_rating":2.52,"distinct_type":"Bottom","rt":null,"stimulus":"Stimuli_Rocks480/I_Gabbro_16.png","response":null,"trial_type":"image-keyboard-response","trial_index":148,"plugin_version":"2.1.0","time_elapsed":333978,"subject_id":"87549","group":"Group1","full_date":"2025-12-04T21:24:24.667Z","date":"2025-12-04","time":"21:24:24"},{"rt":null,"stimulus":"<p style=\"font-size: 50px; margin: 0; text-align: center;\">+</p>","response":null,"trial_type":"html-keyboard-response","trial_index":149,"plugin_version":"2.1.0","time_elapsed":334981,"subject_id":"87549","group":"Group1","full_date":"2025-12-04T21:24:24.667Z","date":"2025-12-04","time":"21:24:24"},{"task":"memory_phase","broad_category":"I","image_png":"I_Diorite_05.png","image_id":37,"category_name":"Diorite","category":3,"distinct_rating":3.08,"distinct_type":"Bottom","rt":null,"stimulus":"Stimuli_Rocks480/I_Diorite_05.png","response":null,"trial_type":"image-keyboard-response","trial_index":150,"plugin_version":"2.1.0","time_elapsed":337483,"subject_id":"87549","group":"Group1","full_date":"2025-12-04T21:24:24.667Z","date":"2025-12-04","time":"21:24:24"},{"rt":null,"stimulus":"<p style=\"font-size: 50px; margin: 0; text-align: center;\">+</p>","response":null,"trial_type":"html-keyboard-response","trial_index":151,"plugin_version":"2.1.0","time_elapsed":338486,"subject_id":"87549","group":"Group1","full_date":"2025-12-04T21:24:24.667Z","date":"2025-12-04","time":"21:24:24"},{"task":"memory_phase","broad_category":"I","image_png":"I_Andesite_06.png","image_id":6,"category_name":"Andesite","category":1,"distinct_rating":3.17,"distinct_type":"Bottom","rt":null,"stimulus":"Stimuli_Rocks480/I_Andesite_06.png","response":null,"trial_type":"image-keyboard-response","trial_index":152,"plugin_version":"2.1.0","time_elapsed":340989,"subject_id":"87549","group":"Group1","full_date":"2025-12-04T21:24:24.667Z","date":"2025-12-04","time":"21:24:24"},{"rt":null,"stimulus":"<p style=\"font-size: 50px; margin: 0; text-align: center;\">+</p>","response":null,"trial_type":"html-keyboard-response","trial_index":153,"plugin_version":"2.1.0","time_elapsed":341991,"subject_id":"87549","group":"Group1","full_date":"2025-12-04T21:24:24.667Z","date":"2025-12-04","time":"21:24:24"},{"task":"memory_phase","broad_category":"S","image_png":"S_Sandstone_16.png","image_id":464,"category_name":"Sandstone","category":29,"distinct_rating":1.93,"distinct_type":"Bottom","rt":null,"stimulus":"Stimuli_Rocks480/S_Sandstone_16.png","response":null,"trial_type":"image-keyboard-response","trial_index":154,"plugin_version":"2.1.0","time_elapsed":344495,"subject_id":"87549","group":"Group1","full_date":"2025-12-04T21:24:24.667Z","date":"2025-12-04","time":"21:24:24"},{"rt":null,"stimulus":"<p style=\"font-size: 50px; margin: 0; text-align: center;\">+</p>","response":null,"trial_type":"html-keyboard-response","trial_index":155,"plugin_version":"2.1.0","time_elapsed":345497,"subject_id":"87549","group":"Group1","full_date":"2025-12-04T21:24:24.667Z","date":"2025-12-04","time":"21:24:24"},{"task":"memory_phase","broad_category":"S","image_png":"S_Breccia_11.png","image_id":347,"category_name":"Breccia","category":22,"distinct_rating":6.7,"distinct_type":"Top","rt":null,"stimulus":"Stimuli_Rocks480/S_Breccia_11.png","response":null,"trial_type":"image-keyboard-response","trial_index":156,"plugin_version":"2.1.0","time_elapsed":348000,"subject_id":"87549","group":"Group1","full_date":"2025-12-04T21:24:24.667Z","date":"2025-12-04","time":"21:24:24"},{"rt":2994,"stimulus":"<p style=\"max-width: 760px; margin: auto; font-size: 35px; line-height: 1.5;\">Press SPACE to continue study phase</p>","response":" ","trial_type":"html-keyboard-response","trial_index":157,"plugin_version":"2.1.0","time_elapsed":350995,"subject_id":"87549","group":"Group1","full_date":"2025-12-04T21:24:24.667Z","date":"2025-12-04","time":"21:24:24"},{"rt":null,"stimulus":"<p style=\"font-size: 50px; margin: 0; text-align: center;\">+</p>","response":null,"trial_type":"html-keyboard-response","trial_index":158,"plugin_version":"2.1.0","time_elapsed":351998,"subject_id":"87549","group":"Group1","full_date":"2025-12-04T21:24:24.667Z","date":"2025-12-04","time":"21:24:24"},{"task":"memory_phase","broad_category":"M","image_png":"M_Gneiss_13.png","image_id":205,"category_name":"Gneiss","category":13,"distinct_rating":3.26,"distinct_type":"Bottom","rt":null,"stimulus":"Stimuli_Rocks480/M_Gneiss_13.png","response":null,"trial_type":"image-keyboard-response","trial_index":159,"plugin_version":"2.1.0","time_elapsed":354501,"subject_id":"87549","group":"Group1","full_date":"2025-12-04T21:24:24.667Z","date":"2025-12-04","time":"21:24:24"},{"rt":null,"stimulus":"<p style=\"font-size: 50px; margin: 0; text-align: center;\">+</p>","response":null,"trial_type":"html-keyboard-response","trial_index":160,"plugin_version":"2.1.0","time_elapsed":355504,"subject_id":"87549","group":"Group1","full_date":"2025-12-04T21:24:24.667Z","date":"2025-12-04","time":"21:24:24"},{"task":"memory_phase","broad_category":"S","image_png":"S_Dolomite_14.png","image_id":398,"category_name":"Dolomite","category":25,"distinct_rating":1.43,"distinct_type":"Bottom","rt":null,"stimulus":"Stimuli_Rocks480/S_Dolomite_14.png","response":null,"trial_type":"image-keyboard-response","trial_index":161,"plugin_version":"2.1.0","time_elapsed":358007,"subject_id":"87549","group":"Group1","full_date":"2025-12-04T21:24:24.667Z","date":"2025-12-04","time":"21:24:24"},{"rt":null,"stimulus":"<p style=\"font-size: 50px; margin: 0; text-align: center;\">+</p>","response":null,"trial_type":"html-keyboard-response","trial_index":162,"plugin_version":"2.1.0","time_elapsed":359010,"subject_id":"87549","group":"Group1","full_date":"2025-12-04T21:24:24.667Z","date":"2025-12-04","time":"21:24:24"},{"task":"memory_phase","broad_category":"S","image_png":"S_Shale_08.png","image_id":472,"category_name":"Shale","category":30,"distinct_rating":2.55,"distinct_type":"Bottom","rt":null,"stimulus":"Stimuli_Rocks480/S_Shale_08.png","response":null,"trial_type":"image-keyboard-response","trial_index":163,"plugin_version":"2.1.0","time_elapsed":361513,"subject_id":"87549","group":"Group1","full_date":"2025-12-04T21:24:24.667Z","date":"2025-12-04","time":"21:24:24"},{"rt":null,"stimulus":"<p style=\"font-size: 50px; margin: 0; text-align: center;\">+</p>","response":null,"trial_type":"html-keyboard-response","trial_index":164,"plugin_version":"2.1.0","time_elapsed":362515,"subject_id":"87549","group":"Group1","full_date":"2025-12-04T21:24:24.667Z","date":"2025-12-04","time":"21:24:24"},{"task":"memory_phase","broad_category":"S","image_png":"S_Shale_01.png","image_id":465,"category_name":"Shale","category":30,"distinct_rating":2.7,"distinct_type":"Bottom","rt":null,"stimulus":"Stimuli_Rocks480/S_Shale_01.png","response":null,"trial_type":"image-keyboard-response","trial_index":165,"plugin_version":"2.1.0","time_elapsed":365018,"subject_id":"87549","group":"Group1","full_date":"2025-12-04T21:24:24.667Z","date":"2025-12-04","time":"21:24:24"},{"rt":null,"stimulus":"<p style=\"font-size: 50px; margin: 0; text-align: center;\">+</p>","response":null,"trial_type":"html-keyboard-response","trial_index":166,"plugin_version":"2.1.0","time_elapsed":366020,"subject_id":"87549","group":"Group1","full_date":"2025-12-04T21:24:24.667Z","date":"2025-12-04","time":"21:24:24"},{"task":"memory_phase","broad_category":"M","image_png":"M_Marble_16.png","image_id":240,"category_name":"Marble","category":15,"distinct_rating":2.57,"distinct_type":"Bottom","rt":null,"stimulus":"Stimuli_Rocks480/M_Marble_16.png","response":null,"trial_type":"image-keyboard-response","trial_index":167,"plugin_version":"2.1.0","time_elapsed":368523,"subject_id":"87549","group":"Group1","full_date":"2025-12-04T21:24:24.667Z","date":"2025-12-04","time":"21:24:24"},{"rt":null,"stimulus":"<p style=\"font-size: 50px; margin: 0; text-align: center;\">+</p>","response":null,"trial_type":"html-keyboard-response","trial_index":168,"plugin_version":"2.1.0","time_elapsed":369526,"subject_id":"87549","group":"Group1","full_date":"2025-12-04T21:24:24.667Z","date":"2025-12-04","time":"21:24:24"},{"task":"memory_phase","broad_category":"M","image_png":"M_Slate_11.png","image_id":315,"category_name":"Slate","category":20,"distinct_rating":2.75,"distinct_type":"Bottom","rt":null,"stimulus":"Stimuli_Rocks480/M_Slate_11.png","response":null,"trial_type":"image-keyboard-response","trial_index":169,"plugin_version":"2.1.0","time_elapsed":372029,"subject_id":"87549","group":"Group1","full_date":"2025-12-04T21:24:24.667Z","date":"2025-12-04","time":"21:24:24"},{"rt":null,"stimulus":"<p style=\"font-size: 50px; margin: 0; text-align: center;\">+</p>","response":null,"trial_type":"html-keyboard-response","trial_index":170,"plugin_version":"2.1.0","time_elapsed":373031,"subject_id":"87549","group":"Group1","full_date":"2025-12-04T21:24:24.667Z","date":"2025-12-04","time":"21:24:24"},{"task":"memory_phase","broad_category":"M","image_png":"M_Slate_03.png","image_id":307,"category_name":"Slate","category":20,"distinct_rating":1.87,"distinct_type":"Bottom","rt":null,"stimulus":"Stimuli_Rocks480/M_Slate_03.png","response":null,"trial_type":"image-keyboard-response","trial_index":171,"plugin_version":"2.1.0","time_elapsed":375534,"subject_id":"87549","group":"Group1","full_date":"2025-12-04T21:24:24.667Z","date":"2025-12-04","time":"21:24:24"},{"rt":null,"stimulus":"<p style=\"font-size: 50px; margin: 0; text-align: center;\">+</p>","response":null,"trial_type":"html-keyboard-response","trial_index":172,"plugin_version":"2.1.0","time_elapsed":376536,"subject_id":"87549","group":"Group1","full_date":"2025-12-04T21:24:24.667Z","date":"2025-12-04","time":"21:24:24"},{"task":"memory_phase","broad_category":"M","image_png":"M_Marble_06.png","image_id":230,"category_name":"Marble","category":15,"distinct_rating":3.4,"distinct_type":"Bottom","rt":null,"stimulus":"Stimuli_Rocks480/M_Marble_06.png","response":null,"trial_type":"image-keyboard-response","trial_index":173,"plugin_version":"2.1.0","time_elapsed":379040,"subject_id":"87549","group":"Group1","full_date":"2025-12-04T21:24:24.667Z","date":"2025-12-04","time":"21:24:24"},{"rt":null,"stimulus":"<p style=\"font-size: 50px; margin: 0; text-align: center;\">+</p>","response":null,"trial_type":"html-keyboard-response","trial_index":174,"plugin_version":"2.1.0","time_elapsed":380042,"subject_id":"87549","group":"Group1","full_date":"2025-12-04T21:24:24.667Z","date":"2025-12-04","time":"21:24:24"},{"task":"memory_phase","broad_category":"I","image_png":"I_Rhyolite_11.png","image_id":155,"category_name":"Rhyolite","category":10,"distinct_rating":1.73,"distinct_type":"Bottom","rt":null,"stimulus":"Stimuli_Rocks480/I_Rhyolite_11.png","response":null,"trial_type":"image-keyboard-response","trial_index":175,"plugin_version":"2.1.0","time_elapsed":382545,"subject_id":"87549","group":"Group1","full_date":"2025-12-04T21:24:24.667Z","date":"2025-12-04","time":"21:24:24"},{"rt":null,"stimulus":"<p style=\"font-size: 50px; margin: 0; text-align: center;\">+</p>","response":null,"trial_type":"html-keyboard-response","trial_index":176,"plugin_version":"2.1.0","time_elapsed":383548,"subject_id":"87549","group":"Group1","full_date":"2025-12-04T21:24:24.667Z","date":"2025-12-04","time":"21:24:24"},{"task":"memory_phase","broad_category":"I","image_png":"I_Andesite_08.png","image_id":8,"category_name":"Andesite","category":1,"distinct_rating":1.95,"distinct_type":"Bottom","rt":null,"stimulus":"Stimuli_Rocks480/I_Andesite_08.png","response":null,"trial_type":"image-keyboard-response","trial_index":177,"plugin_version":"2.1.0","time_elapsed":386051,"subject_id":"87549","group":"Group1","full_date":"2025-12-04T21:24:24.667Z","date":"2025-12-04","time":"21:24:24"},{"rt":null,"stimulus":"<p style=\"font-size: 50px; margin: 0; text-align: center;\">+</p>","response":null,"trial_type":"html-keyboard-response","trial_index":178,"plugin_version":"2.1.0","time_elapsed":387054,"subject_id":"87549","group":"Group1","full_date":"2025-12-04T21:24:24.667Z","date":"2025-12-04","time":"21:24:24"},{"task":"memory_phase","broad_category":"M","image_png":"M_Gneiss_06.png","image_id":198,"category_name":"Gneiss","category":13,"distinct_rating":2.65,"distinct_type":"Bottom","rt":null,"stimulus":"Stimuli_Rocks480/M_Gneiss_06.png","response":null,"trial_type":"image-keyboard-response","trial_index":179,"plugin_version":"2.1.0","time_elapsed":389557,"subject_id":"87549","group":"Group1","full_date":"2025-12-04T21:24:24.667Z","date":"2025-12-04","time":"21:24:24"},{"rt":null,"stimulus":"<p style=\"font-size: 50px; margin: 0; text-align: center;\">+</p>","response":null,"trial_type":"html-keyboard-response","trial_index":180,"plugin_version":"2.1.0","time_elapsed":390560,"subject_id":"87549","group":"Group1","full_date":"2025-12-04T21:24:24.667Z","date":"2025-12-04","time":"21:24:24"},{"task":"memory_phase","broad_category":"S","image_png":"S_Rock Salt_01.png","image_id":433,"category_name":"Rock Salt","category":28,"distinct_rating":7.18,"distinct_type":"Top","rt":null,"stimulus":"Stimuli_Rocks480/S_Rock Salt_01.png","response":null,"trial_type":"image-keyboard-response","trial_index":181,"plugin_version":"2.1.0","time_elapsed":393063,"subject_id":"87549","group":"Group1","full_date":"2025-12-04T21:24:24.667Z","date":"2025-12-04","time":"21:24:24"},{"rt":null,"stimulus":"<p style=\"font-size: 50px; margin: 0; text-align: center;\">+</p>","response":null,"trial_type":"html-keyboard-response","trial_index":182,"plugin_version":"2.1.0","time_elapsed":394065,"subject_id":"87549","group":"Group1","full_date":"2025-12-04T21:24:24.667Z","date":"2025-12-04","time":"21:24:24"},{"task":"memory_phase","broad_category":"S","image_png":"S_Chert_10.png","image_id":362,"category_name":"Chert","category":23,"distinct_rating":7.17,"distinct_type":"Top","rt":null,"stimulus":"Stimuli_Rocks480/S_Chert_10.png","response":null,"trial_type":"image-keyboard-response","trial_index":183,"plugin_version":"2.1.0","time_elapsed":396568,"subject_id":"87549","group":"Group1","full_date":"2025-12-04T21:24:24.667Z","date":"2025-12-04","time":"21:24:24"},{"rt":null,"stimulus":"<p style=\"font-size: 50px; margin: 0; text-align: center;\">+</p>","response":null,"trial_type":"html-keyboard-response","trial_index":184,"plugin_version":"2.1.0","time_elapsed":397570,"subject_id":"87549","group":"Group1","full_date":"2025-12-04T21:24:24.667Z","date":"2025-12-04","time":"21:24:24"},{"task":"memory_phase","broad_category":"I","image_png":"I_Obsidian_05.png","image_id":85,"category_name":"Obsidian","category":6,"distinct_rating":7.32,"distinct_type":"Top","rt":null,"stimulus":"Stimuli_Rocks480/I_Obsidian_05.png","response":null,"trial_type":"image-keyboard-response","trial_index":185,"plugin_version":"2.1.0","time_elapsed":400074,"subject_id":"87549","group":"Group1","full_date":"2025-12-04T21:24:24.667Z","date":"2025-12-04","time":"21:24:24"},{"rt":null,"stimulus":"<p style=\"font-size: 50px; margin: 0; text-align: center;\">+</p>","response":null,"trial_type":"html-keyboard-response","trial_index":186,"plugin_version":"2.1.0","time_elapsed":401076,"subject_id":"87549","group":"Group1","full_date":"2025-12-04T21:24:24.667Z","date":"2025-12-04","time":"21:24:24"},{"task":"memory_phase","broad_category":"I","image_png":"I_Basalt_02.png","image_id":18,"category_name":"Basalt","category":2,"distinct_rating":1.84,"distinct_type":"Bottom","rt":null,"stimulus":"Stimuli_Rocks480/I_Basalt_02.png","response":null,"trial_type":"image-keyboard-response","trial_index":187,"plugin_version":"2.1.0","time_elapsed":403579,"subject_id":"87549","group":"Group1","full_date":"2025-12-04T21:24:24.667Z","date":"2025-12-04","time":"21:24:24"},{"rt":null,"stimulus":"<p style=\"font-size: 50px; margin: 0; text-align: center;\">+</p>","response":null,"trial_type":"html-keyboard-response","trial_index":188,"plugin_version":"2.1.0","time_elapsed":404582,"subject_id":"87549","group":"Group1","full_date":"2025-12-04T21:24:24.667Z","date":"2025-12-04","time":"21:24:24"},{"task":"memory_phase","broad_category":"S","image_png":"S_Dolomite_12.png","image_id":396,"category_name":"Dolomite","category":25,"distinct_rating":1.85,"distinct_type":"Bottom","rt":null,"stimulus":"Stimuli_Rocks480/S_Dolomite_12.png","response":null,"trial_type":"image-keyboard-response","trial_index":189,"plugin_version":"2.1.0","time_elapsed":407085,"subject_id":"87549","group":"Group1","full_date":"2025-12-04T21:24:24.667Z","date":"2025-12-04","time":"21:24:24"},{"rt":null,"stimulus":"<p style=\"font-size: 50px; margin: 0; text-align: center;\">+</p>","response":null,"trial_type":"html-keyboard-response","trial_index":190,"plugin_version":"2.1.0","time_elapsed":408087,"subject_id":"87549","group":"Group1","full_date":"2025-12-04T21:24:24.667Z","date":"2025-12-04","time":"21:24:24"},{"task":"memory_phase","broad_category":"I","image_png":"I_Rhyolite_14.png","image_id":158,"category_name":"Rhyolite","category":10,"distinct_rating":2.59,"distinct_type":"Bottom","rt":null,"stimulus":"Stimuli_Rocks480/I_Rhyolite_14.png","response":null,"trial_type":"image-keyboard-response","trial_index":191,"plugin_version":"2.1.0","time_elapsed":410590,"subject_id":"87549","group":"Group1","full_date":"2025-12-04T21:24:24.667Z","date":"2025-12-04","time":"21:24:24"},{"rt":null,"stimulus":"<p style=\"font-size: 50px; margin: 0; text-align: center;\">+</p>","response":null,"trial_type":"html-keyboard-response","trial_index":192,"plugin_version":"2.1.0","time_elapsed":411592,"subject_id":"87549","group":"Group1","full_date":"2025-12-04T21:24:24.667Z","date":"2025-12-04","time":"21:24:24"},{"task":"memory_phase","broad_category":"S","image_png":"S_Sandstone_15.png","image_id":463,"category_name":"Sandstone","category":29,"distinct_rating":2,"distinct_type":"Bottom","rt":null,"stimulus":"Stimuli_Rocks480/S_Sandstone_15.png","response":null,"trial_type":"image-keyboard-response","trial_index":193,"plugin_version":"2.1.0","time_elapsed":414096,"subject_id":"87549","group":"Group1","full_date":"2025-12-04T21:24:24.667Z","date":"2025-12-04","time":"21:24:24"},{"rt":null,"stimulus":"<p style=\"font-size: 50px; margin: 0; text-align: center;\">+</p>","response":null,"trial_type":"html-keyboard-response","trial_index":194,"plugin_version":"2.1.0","time_elapsed":415098,"subject_id":"87549","group":"Group1","full_date":"2025-12-04T21:24:24.667Z","date":"2025-12-04","time":"21:24:24"},{"task":"memory_phase","broad_category":"S","image_png":"S_Dolomite_13.png","image_id":397,"category_name":"Dolomite","category":25,"distinct_rating":1.77,"distinct_type":"Bottom","rt":null,"stimulus":"Stimuli_Rocks480/S_Dolomite_13.png","response":null,"trial_type":"image-keyboard-response","trial_index":195,"plugin_version":"2.1.0","time_elapsed":417601,"subject_id":"87549","group":"Group1","full_date":"2025-12-04T21:24:24.667Z","date":"2025-12-04","time":"21:24:24"},{"rt":null,"stimulus":"<p style=\"font-size: 50px; margin: 0; text-align: center;\">+</p>","response":null,"trial_type":"html-keyboard-response","trial_index":196,"plugin_version":"2.1.0","time_elapsed":418604,"subject_id":"87549","group":"Group1","full_date":"2025-12-04T21:24:24.667Z","date":"2025-12-04","time":"21:24:24"},{"task":"memory_phase","broad_category":"M","image_png":"M_Slate_15.png","image_id":319,"category_name":"Slate","category":20,"distinct_rating":2.13,"distinct_type":"Bottom","rt":null,"stimulus":"Stimuli_Rocks480/M_Slate_15.png","response":null,"trial_type":"image-keyboard-response","trial_index":197,"plugin_version":"2.1.0","time_elapsed":421106,"subject_id":"87549","group":"Group1","full_date":"2025-12-04T21:24:24.667Z","date":"2025-12-04","time":"21:24:24"},{"rt":null,"stimulus":"<p style=\"font-size: 50px; margin: 0; text-align: center;\">+</p>","response":null,"trial_type":"html-keyboard-response","trial_index":198,"plugin_version":"2.1.0","time_elapsed":422109,"subject_id":"87549","group":"Group1","full_date":"2025-12-04T21:24:24.667Z","date":"2025-12-04","time":"21:24:24"},{"task":"memory_phase","broad_category":"M","image_png":"M_Quartzite_13.png","image_id":285,"category_name":"Quartzite","category":18,"distinct_rating":2.27,"distinct_type":"Bottom","rt":null,"stimulus":"Stimuli_Rocks480/M_Quartzite_13.png","response":null,"trial_type":"image-keyboard-response","trial_index":199,"plugin_version":"2.1.0","time_elapsed":424612,"subject_id":"87549","group":"Group1","full_date":"2025-12-04T21:24:24.667Z","date":"2025-12-04","time":"21:24:24"},{"rt":null,"stimulus":"<p style=\"font-size: 50px; margin: 0; text-align: center;\">+</p>","response":null,"trial_type":"html-keyboard-response","trial_index":200,"plugin_version":"2.1.0","time_elapsed":425614,"subject_id":"87549","group":"Group1","full_date":"2025-12-04T21:24:24.667Z","date":"2025-12-04","time":"21:24:24"},{"task":"memory_phase","broad_category":"I","image_png":"I_Pegmatite_16.png","image_id":112,"category_name":"Pegmatite","category":7,"distinct_rating":7.03,"distinct_type":"Top","rt":null,"stimulus":"Stimuli_Rocks480/I_Pegmatite_16.png","response":null,"trial_type":"image-keyboard-response","trial_index":201,"plugin_version":"2.1.0","time_elapsed":428118,"subject_id":"87549","group":"Group1","full_date":"2025-12-04T21:24:24.667Z","date":"2025-12-04","time":"21:24:24"},{"rt":null,"stimulus":"<p style=\"font-size: 50px; margin: 0; text-align: center;\">+</p>","response":null,"trial_type":"html-keyboard-response","trial_index":202,"plugin_version":"2.1.0","time_elapsed":429119,"subject_id":"87549","group":"Group1","full_date":"2025-12-04T21:24:24.667Z","date":"2025-12-04","time":"21:24:24"},{"task":"memory_phase","broad_category":"M","image_png":"M_Gneiss_05.png","image_id":197,"category_name":"Gneiss","category":13,"distinct_rating":2.97,"distinct_type":"Bottom","rt":null,"stimulus":"Stimuli_Rocks480/M_Gneiss_05.png","response":null,"trial_type":"image-keyboard-response","trial_index":203,"plugin_version":"2.1.0","time_elapsed":431623,"subject_id":"87549","group":"Group1","full_date":"2025-12-04T21:24:24.667Z","date":"2025-12-04","time":"21:24:24"},{"rt":null,"stimulus":"<p style=\"font-size: 50px; margin: 0; text-align: center;\">+</p>","response":null,"trial_type":"html-keyboard-response","trial_index":204,"plugin_version":"2.1.0","time_elapsed":432625,"subject_id":"87549","group":"Group1","full_date":"2025-12-04T21:24:24.667Z","date":"2025-12-04","time":"21:24:24"},{"task":"memory_phase","broad_category":"M","image_png":"M_Phyllite_07.png","image_id":263,"category_name":"Phyllite","category":17,"distinct_rating":2.59,"distinct_type":"Bottom","rt":null,"stimulus":"Stimuli_Rocks480/M_Phyllite_07.png","response":null,"trial_type":"image-keyboard-response","trial_index":205,"plugin_version":"2.1.0","time_elapsed":435128,"subject_id":"87549","group":"Group1","full_date":"2025-12-04T21:24:24.667Z","date":"2025-12-04","time":"21:24:24"},{"rt":null,"stimulus":"<p style=\"font-size: 50px; margin: 0; text-align: center;\">+</p>","response":null,"trial_type":"html-keyboard-response","trial_index":206,"plugin_version":"2.1.0","time_elapsed":436130,"subject_id":"87549","group":"Group1","full_date":"2025-12-04T21:24:24.667Z","date":"2025-12-04","time":"21:24:24"},{"task":"memory_phase","broad_category":"I","image_png":"I_Rhyolite_16.png","image_id":160,"category_name":"Rhyolite","category":10,"distinct_rating":2.19,"distinct_type":"Bottom","rt":null,"stimulus":"Stimuli_Rocks480/I_Rhyolite_16.png","response":null,"trial_type":"image-keyboard-response","trial_index":207,"plugin_version":"2.1.0","time_elapsed":438633,"subject_id":"87549","group":"Group1","full_date":"2025-12-04T21:24:24.667Z","date":"2025-12-04","time":"21:24:24"},{"rt":20000,"stimulus":"<p style=\"max-width: 760px; margin: auto; font-size: 35px; line-height: 1.5;\">You have completed 2 study phases. Now, we'll show you all the images again 1 more time.<br><br>Press SPACE to continue</p>","response":" ","trial_type":"html-keyboard-response","trial_index":208,"plugin_version":"2.1.0","time_elapsed":458634,"subject_id":"87549","group":"Group1","full_date":"2025-12-04T21:24:24.667Z","date":"2025-12-04","time":"21:24:24"},{"rt":null,"stimulus":"<p style=\"font-size: 50px; margin: 0; text-align: center;\">+</p>","response":null,"trial_type":"html-keyboard-response","trial_index":209,"plugin_version":"2.1.0","time_elapsed":459636,"subject_id":"87549","group":"Group1","full_date":"2025-12-04T21:24:24.667Z","date":"2025-12-04","time":"21:24:24"},{"task":"memory_phase","broad_category":"S","image_png":"S_Rock Gypsum_04.png","image_id":420,"category_name":"Rock Gypsum","category":27,"distinct_rating":7.61,"distinct_type":"Top","rt":null,"stimulus":"Stimuli_Rocks480/S_Rock Gypsum_04.png","response":null,"trial_type":"image-keyboard-response","trial_index":210,"plugin_version":"2.1.0","time_elapsed":462139,"subject_id":"87549","group":"Group1","full_date":"2025-12-04T21:24:24.667Z","date":"2025-12-04","time":"21:24:24"},{"rt":null,"stimulus":"<p style=\"font-size: 50px; margin: 0; text-align: center;\">+</p>","response":null,"trial_type":"html-keyboard-response","trial_index":211,"plugin_version":"2.1.0","time_elapsed":463142,"subject_id":"87549","group":"Group1","full_date":"2025-12-04T21:24:24.667Z","date":"2025-12-04","time":"21:24:24"},{"task":"memory_phase","broad_category":"I","image_png":"I_Pumice_12.png","image_id":140,"category_name":"Pumice","category":9,"distinct_rating":2.97,"distinct_type":"Bottom","rt":null,"stimulus":"Stimuli_Rocks480/I_Pumice_12.png","response":null,"trial_type":"image-keyboard-response","trial_index":212,"plugin_version":"2.1.0","time_elapsed":465648,"subject_id":"87549","group":"Group1","full_date":"2025-12-04T21:24:24.667Z","date":"2025-12-04","time":"21:24:24"},{"rt":null,"stimulus":"<p style=\"font-size: 50px; margin: 0; text-align: center;\">+</p>","response":null,"trial_type":"html-keyboard-response","trial_index":213,"plugin_version":"2.1.0","time_elapsed":466651,"subject_id":"87549","group":"Group1","full_date":"2025-12-04T21:24:24.667Z","date":"2025-12-04","time":"21:24:24"},{"task":"memory_phase","broad_category":"I","image_png":"I_Pumice_11.png","image_id":139,"category_name":"Pumice","category":9,"distinct_rating":1.74,"distinct_type":"Bottom","rt":null,"stimulus":"Stimuli_Rocks480/I_Pumice_11.png","response":null,"trial_type":"image-keyboard-response","trial_index":214,"plugin_version":"2.1.0","time_elapsed":469154,"subject_id":"87549","group":"Group1","full_date":"2025-12-04T21:24:24.667Z","date":"2025-12-04","time":"21:24:24"},{"rt":null,"stimulus":"<p style=\"font-size: 50px; margin: 0; text-align: center;\">+</p>","response":null,"trial_type":"html-keyboard-response","trial_index":215,"plugin_version":"2.1.0","time_elapsed":470157,"subject_id":"87549","group":"Group1","full_date":"2025-12-04T21:24:24.667Z","date":"2025-12-04","time":"21:24:24"},{"task":"memory_phase","broad_category":"I","image_png":"I_Basalt_09.png","image_id":25,"category_name":"Basalt","category":2,"distinct_rating":1.89,"distinct_type":"Bottom","rt":null,"stimulus":"Stimuli_Rocks480/I_Basalt_09.png","response":null,"trial_type":"image-keyboard-response","trial_index":216,"plugin_version":"2.1.0","time_elapsed":472660,"subject_id":"87549","group":"Group1","full_date":"2025-12-04T21:24:24.667Z","date":"2025-12-04","time":"21:24:24"},{"rt":null,"stimulus":"<p style=\"font-size: 50px; margin: 0; text-align: center;\">+</p>","response":null,"trial_type":"html-keyboard-response","trial_index":217,"plugin_version":"2.1.0","time_elapsed":473663,"subject_id":"87549","group":"Group1","full_date":"2025-12-04T21:24:24.667Z","date":"2025-12-04","time":"21:24:24"},{"task":"memory_phase","broad_category":"S","image_png":"S_Chert_10.png","image_id":362,"category_name":"Chert","category":23,"distinct_rating":7.17,"distinct_type":"Top","rt":null,"stimulus":"Stimuli_Rocks480/S_Chert_10.png","response":null,"trial_type":"image-keyboard-response","trial_index":218,"plugin_version":"2.1.0","time_elapsed":476165,"subject_id":"87549","group":"Group1","full_date":"2025-12-04T21:24:24.667Z","date":"2025-12-04","time":"21:24:24"},{"rt":null,"stimulus":"<p style=\"font-size: 50px; margin: 0; text-align: center;\">+</p>","response":null,"trial_type":"html-keyboard-response","trial_index":219,"plugin_version":"2.1.0","time_elapsed":477168,"subject_id":"87549","group":"Group1","full_date":"2025-12-04T21:24:24.667Z","date":"2025-12-04","time":"21:24:24"},{"task":"memory_phase","broad_category":"I","image_png":"I_Diorite_05.png","image_id":37,"category_name":"Diorite","category":3,"distinct_rating":3.08,"distinct_type":"Bottom","rt":null,"stimulus":"Stimuli_Rocks480/I_Diorite_05.png","response":null,"trial_type":"image-keyboard-response","trial_index":220,"plugin_version":"2.1.0","time_elapsed":479671,"subject_id":"87549","group":"Group1","full_date":"2025-12-04T21:24:24.667Z","date":"2025-12-04","time":"21:24:24"},{"rt":null,"stimulus":"<p style=\"font-size: 50px; margin: 0; text-align: center;\">+</p>","response":null,"trial_type":"html-keyboard-response","trial_index":221,"plugin_version":"2.1.0","time_elapsed":480674,"subject_id":"87549","group":"Group1","full_date":"2025-12-04T21:24:24.667Z","date":"2025-12-04","time":"21:24:24"},{"task":"memory_phase","broad_category":"M","image_png":"M_Marble_06.png","image_id":230,"category_name":"Marble","category":15,"distinct_rating":3.4,"distinct_type":"Bottom","rt":null,"stimulus":"Stimuli_Rocks480/M_Marble_06.png","response":null,"trial_type":"image-keyboard-response","trial_index":222,"plugin_version":"2.1.0","time_elapsed":483177,"subject_id":"87549","group":"Group1","full_date":"2025-12-04T21:24:24.667Z","date":"2025-12-04","time":"21:24:24"},{"rt":null,"stimulus":"<p style=\"font-size: 50px; margin: 0; text-align: center;\">+</p>","response":null,"trial_type":"html-keyboard-response","trial_index":223,"plugin_version":"2.1.0","time_elapsed":484179,"subject_id":"87549","group":"Group1","full_date":"2025-12-04T21:24:24.667Z","date":"2025-12-04","time":"21:24:24"},{"task":"memory_phase","broad_category":"I","image_png":"I_Rhyolite_16.png","image_id":160,"category_name":"Rhyolite","category":10,"distinct_rating":2.19,"distinct_type":"Bottom","rt":null,"stimulus":"Stimuli_Rocks480/I_Rhyolite_16.png","response":null,"trial_type":"image-keyboard-response","trial_index":224,"plugin_version":"2.1.0","time_elapsed":486682,"subject_id":"87549","group":"Group1","full_date":"2025-12-04T21:24:24.667Z","date":"2025-12-04","time":"21:24:24"},{"rt":null,"stimulus":"<p style=\"font-size: 50px; margin: 0; text-align: center;\">+</p>","response":null,"trial_type":"html-keyboard-response","trial_index":225,"plugin_version":"2.1.0","time_elapsed":487683,"subject_id":"87549","group":"Group1","full_date":"2025-12-04T21:24:24.667Z","date":"2025-12-04","time":"21:24:24"},{"task":"memory_phase","broad_category":"M","image_png":"M_Marble_16.png","image_id":240,"category_name":"Marble","category":15,"distinct_rating":2.57,"distinct_type":"Bottom","rt":null,"stimulus":"Stimuli_Rocks480/M_Marble_16.png","response":null,"trial_type":"image-keyboard-response","trial_index":226,"plugin_version":"2.1.0","time_elapsed":490187,"subject_id":"87549","group":"Group1","full_date":"2025-12-04T21:24:24.667Z","date":"2025-12-04","time":"21:24:24"},{"rt":null,"stimulus":"<p style=\"font-size: 50px; margin: 0; text-align: center;\">+</p>","response":null,"trial_type":"html-keyboard-response","trial_index":227,"plugin_version":"2.1.0","time_elapsed":491189,"subject_id":"87549","group":"Group1","full_date":"2025-12-04T21:24:24.667Z","date":"2025-12-04","time":"21:24:24"},{"task":"memory_phase","broad_category":"M","image_png":"M_Slate_03.png","image_id":307,"category_name":"Slate","category":20,"distinct_rating":1.87,"distinct_type":"Bottom","rt":null,"stimulus":"Stimuli_Rocks480/M_Slate_03.png","response":null,"trial_type":"image-keyboard-response","trial_index":228,"plugin_version":"2.1.0","time_elapsed":493692,"subject_id":"87549","group":"Group1","full_date":"2025-12-04T21:24:24.667Z","date":"2025-12-04","time":"21:24:24"},{"rt":null,"stimulus":"<p style=\"font-size: 50px; margin: 0; text-align: center;\">+</p>","response":null,"trial_type":"html-keyboard-response","trial_index":229,"plugin_version":"2.1.0","time_elapsed":494695,"subject_id":"87549","group":"Group1","full_date":"2025-12-04T21:24:24.667Z","date":"2025-12-04","time":"21:24:24"},{"task":"memory_phase","broad_category":"I","image_png":"I_Gabbro_08.png","image_id":56,"category_name":"Gabbro","category":4,"distinct_rating":3.02,"distinct_type":"Bottom","rt":null,"stimulus":"Stimuli_Rocks480/I_Gabbro_08.png","response":null,"trial_type":"image-keyboard-response","trial_index":230,"plugin_version":"2.1.0","time_elapsed":497198,"subject_id":"87549","group":"Group1","full_date":"2025-12-04T21:24:24.667Z","date":"2025-12-04","time":"21:24:24"},{"rt":null,"stimulus":"<p style=\"font-size: 50px; margin: 0; text-align: center;\">+</p>","response":null,"trial_type":"html-keyboard-response","trial_index":231,"plugin_version":"2.1.0","time_elapsed":498201,"subject_id":"87549","group":"Group1","full_date":"2025-12-04T21:24:24.667Z","date":"2025-12-04","time":"21:24:24"},{"task":"memory_phase","broad_category":"M","image_png":"M_Slate_15.png","image_id":319,"category_name":"Slate","category":20,"distinct_rating":2.13,"distinct_type":"Bottom","rt":null,"stimulus":"Stimuli_Rocks480/M_Slate_15.png","response":null,"trial_type":"image-keyboard-response","trial_index":232,"plugin_version":"2.1.0","time_elapsed":500704,"subject_id":"87549","group":"Group1","full_date":"2025-12-04T21:24:24.667Z","date":"2025-12-04","time":"21:24:24"},{"rt":null,"stimulus":"<p style=\"font-size: 50px; margin: 0; text-align: center;\">+</p>","response":null,"trial_type":"html-keyboard-response","trial_index":233,"plugin_version":"2.1.0","time_elapsed":501706,"subject_id":"87549","group":"Group1","full_date":"2025-12-04T21:24:24.667Z","date":"2025-12-04","time":"21:24:24"},{"task":"memory_phase","broad_category":"I","image_png":"I_Pegmatite_16.png","image_id":112,"category_name":"Pegmatite","category":7,"distinct_rating":7.03,"distinct_type":"Top","rt":null,"stimulus":"Stimuli_Rocks480/I_Pegmatite_16.png","response":null,"trial_type":"image-keyboard-response","trial_index":234,"plugin_version":"2.1.0","time_elapsed":504209,"subject_id":"87549","group":"Group1","full_date":"2025-12-04T21:24:24.667Z","date":"2025-12-04","time":"21:24:24"},{"rt":null,"stimulus":"<p style=\"font-size: 50px; margin: 0; text-align: center;\">+</p>","response":null,"trial_type":"html-keyboard-response","trial_index":235,"plugin_version":"2.1.0","time_elapsed":505211,"subject_id":"87549","group":"Group1","full_date":"2025-12-04T21:24:24.667Z","date":"2025-12-04","time":"21:24:24"},{"task":"memory_phase","broad_category":"I","image_png":"I_Diorite_04.png","image_id":36,"category_name":"Diorite","category":3,"distinct_rating":2.98,"distinct_type":"Bottom","rt":null,"stimulus":"Stimuli_Rocks480/I_Diorite_04.png","response":null,"trial_type":"image-keyboard-response","trial_index":236,"plugin_version":"2.1.0","time_elapsed":507714,"subject_id":"87549","group":"Group1","full_date":"2025-12-04T21:24:24.667Z","date":"2025-12-04","time":"21:24:24"},{"rt":null,"stimulus":"<p style=\"font-size: 50px; margin: 0; text-align: center;\">+</p>","response":null,"trial_type":"html-keyboard-response","trial_index":237,"plugin_version":"2.1.0","time_elapsed":508717,"subject_id":"87549","group":"Group1","full_date":"2025-12-04T21:24:24.667Z","date":"2025-12-04","time":"21:24:24"},{"task":"memory_phase","broad_category":"M","image_png":"M_Slate_11.png","image_id":315,"category_name":"Slate","category":20,"distinct_rating":2.75,"distinct_type":"Bottom","rt":null,"stimulus":"Stimuli_Rocks480/M_Slate_11.png","response":null,"trial_type":"image-keyboard-response","trial_index":238,"plugin_version":"2.1.0","time_elapsed":511220,"subject_id":"87549","group":"Group1","full_date":"2025-12-04T21:24:24.667Z","date":"2025-12-04","time":"21:24:24"},{"rt":null,"stimulus":"<p style=\"font-size: 50px; margin: 0; text-align: center;\">+</p>","response":null,"trial_type":"html-keyboard-response","trial_index":239,"plugin_version":"2.1.0","time_elapsed":512222,"subject_id":"87549","group":"Group1","full_date":"2025-12-04T21:24:24.667Z","date":"2025-12-04","time":"21:24:24"},{"task":"memory_phase","broad_category":"S","image_png":"S_Dolomite_14.png","image_id":398,"category_name":"Dolomite","category":25,"distinct_rating":1.43,"distinct_type":"Bottom","rt":null,"stimulus":"Stimuli_Rocks480/S_Dolomite_14.png","response":null,"trial_type":"image-keyboard-response","trial_index":240,"plugin_version":"2.1.0","time_elapsed":514725,"subject_id":"87549","group":"Group1","full_date":"2025-12-04T21:24:24.667Z","date":"2025-12-04","time":"21:24:24"},{"rt":null,"stimulus":"<p style=\"font-size: 50px; margin: 0; text-align: center;\">+</p>","response":null,"trial_type":"html-keyboard-response","trial_index":241,"plugin_version":"2.1.0","time_elapsed":515727,"subject_id":"87549","group":"Group1","full_date":"2025-12-04T21:24:24.667Z","date":"2025-12-04","time":"21:24:24"},{"task":"memory_phase","broad_category":"S","image_png":"S_Shale_12.png","image_id":476,"category_name":"Shale","category":30,"distinct_rating":2.48,"distinct_type":"Bottom","rt":null,"stimulus":"Stimuli_Rocks480/S_Shale_12.png","response":null,"trial_type":"image-keyboard-response","trial_index":242,"plugin_version":"2.1.0","time_elapsed":518231,"subject_id":"87549","group":"Group1","full_date":"2025-12-04T21:24:24.667Z","date":"2025-12-04","time":"21:24:24"},{"rt":null,"stimulus":"<p style=\"font-size: 50px; margin: 0; text-align: center;\">+</p>","response":null,"trial_type":"html-keyboard-response","trial_index":243,"plugin_version":"2.1.0","time_elapsed":519233,"subject_id":"87549","group":"Group1","full_date":"2025-12-04T21:24:24.667Z","date":"2025-12-04","time":"21:24:24"},{"task":"memory_phase","broad_category":"I","image_png":"I_Pumice_08.png","image_id":136,"category_name":"Pumice","category":9,"distinct_rating":3.1,"distinct_type":"Bottom","rt":null,"stimulus":"Stimuli_Rocks480/I_Pumice_08.png","response":null,"trial_type":"image-keyboard-response","trial_index":244,"plugin_version":"2.1.0","time_elapsed":521736,"subject_id":"87549","group":"Group1","full_date":"2025-12-04T21:24:24.667Z","date":"2025-12-04","time":"21:24:24"},{"rt":null,"stimulus":"<p style=\"font-size: 50px; margin: 0; text-align: center;\">+</p>","response":null,"trial_type":"html-keyboard-response","trial_index":245,"plugin_version":"2.1.0","time_elapsed":522738,"subject_id":"87549","group":"Group1","full_date":"2025-12-04T21:24:24.667Z","date":"2025-12-04","time":"21:24:24"},{"task":"memory_phase","broad_category":"M","image_png":"M_Gneiss_13.png","image_id":205,"category_name":"Gneiss","category":13,"distinct_rating":3.26,"distinct_type":"Bottom","rt":null,"stimulus":"Stimuli_Rocks480/M_Gneiss_13.png","response":null,"trial_type":"image-keyboard-response","trial_index":246,"plugin_version":"2.1.0","time_elapsed":525241,"subject_id":"87549","group":"Group1","full_date":"2025-12-04T21:24:24.667Z","date":"2025-12-04","time":"21:24:24"},{"rt":null,"stimulus":"<p style=\"font-size: 50px; margin: 0; text-align: center;\">+</p>","response":null,"trial_type":"html-keyboard-response","trial_index":247,"plugin_version":"2.1.0","time_elapsed":526243,"subject_id":"87549","group":"Group1","full_date":"2025-12-04T21:24:24.667Z","date":"2025-12-04","time":"21:24:24"},{"task":"memory_phase","broad_category":"S","image_png":"S_Conglomerate_05.png","image_id":373,"category_name":"Conglomerate","category":24,"distinct_rating":7.32,"distinct_type":"Top","rt":null,"stimulus":"Stimuli_Rocks480/S_Conglomerate_05.png","response":null,"trial_type":"image-keyboard-response","trial_index":248,"plugin_version":"2.1.0","time_elapsed":528746,"subject_id":"87549","group":"Group1","fu