[{"width":928,"height":812,"webaudio":true,"browser":"chrome","browser_version":"142.0.0","mobile":false,"os":"Mac OS","fullscreen":true,"vsync_rate":55.93,"webcam":true,"microphone":true,"trial_type":"browser-check","trial_index":0,"plugin_version":"2.1.0","time_elapsed":1081,"subject_id":"90094","group":"Group2","full_date":"2025-12-05T18:54:43.939Z","date":"2025-12-05","time":"18:54:43"},{"success":true,"timeout":false,"failed_images":[],"failed_audio":[],"failed_video":[],"trial_type":"preload","trial_index":1,"plugin_version":"2.1.0","time_elapsed":72858,"subject_id":"90094","group":"Group2","full_date":"2025-12-05T18:54:43.939Z","date":"2025-12-05","time":"18:54:43"},{"rt":36302,"url":"SONA_consent_memorability.html","trial_type":"external-html","trial_index":2,"plugin_version":"2.1.0","time_elapsed":109288,"subject_id":"90094","group":"Group2","full_date":"2025-12-05T18:54:43.939Z","date":"2025-12-05","time":"18:54:43"},{"success":true,"rt":27701,"trial_type":"fullscreen","trial_index":3,"plugin_version":"2.1.0","time_elapsed":137995,"subject_id":"90094","group":"Group2","full_date":"2025-12-05T18:54:43.939Z","date":"2025-12-05","time":"18:54:43"},{"rt":56381,"stimulus":"<div style=\"max-width: 760px; margin: auto; font-size: 20px; line-height: 1.5;\">\n      <h1 style=\"text-align:center; font-size: 30px;\">Instructions</h1>\n      <p>\n        Welcome to the study on <b>visual memory</b>. This experiment consists of <b>two phases</b>: \n        a <b>study phase</b> and a <b>test phase</b>.\n      </p>\n      <p>\n        In the study phase, you will see a series of rock images along with their category labels.\n        The images will appear one at a time.\n        <b>Your task</b> is to learn the categories to which the rock images belong \n        and to remember each image as accurately as possible.\n      </p> \n      <p>\n        Note that we will repeat the study phase <b>3 times</b>, \n        so you will have multiple opportunities to see and remember each image.\n      </p>\n      <p>\n        After the study phase, <b>your memory will be tested</b>. \n        Additional instructions for the test phase will be provided at that time.\n      </p>\n      <p>\n        If your computer has multiple <b>language settings</b> (e.g., English and another language),\n        please make sure it is set to English before starting.\n      </p>\n      <p>\n        You can track your progress using the <b>completion bar</b> at the top of the screen. \n        Please note that the bar will refresh when the test phase begins \n        to give you an accurate sense of your progress in both phases.\n      </p> \n      <p>\n        Press the button below when you are ready to begin.\n      </p>\n    </div>","response":0,"trial_type":"html-button-response","trial_index":4,"plugin_version":"2.1.0","time_elapsed":194381,"subject_id":"90094","group":"Group2","full_date":"2025-12-05T18:54:43.939Z","date":"2025-12-05","time":"18:54:43"},{"rt":null,"stimulus":"<p style=\"font-size: 50px; margin: 0; text-align: center;\">+</p>","response":null,"trial_type":"html-keyboard-response","trial_index":5,"plugin_version":"2.1.0","time_elapsed":195386,"subject_id":"90094","group":"Group2","full_date":"2025-12-05T18:54:43.939Z","date":"2025-12-05","time":"18:54:43"},{"task":"memory_phase","broad_category":"S","image_png":"S_Rock Salt_13.png","image_id":445,"category_name":"Rock Salt","category":28,"distinct_rating":7.58,"distinct_type":"Top","rt":null,"stimulus":"Stimuli_Rocks480/S_Rock Salt_13.png","response":null,"trial_type":"image-keyboard-response","trial_index":6,"plugin_version":"2.1.0","time_elapsed":197892,"subject_id":"90094","group":"Group2","full_date":"2025-12-05T18:54:43.939Z","date":"2025-12-05","time":"18:54:43"},{"rt":null,"stimulus":"<p style=\"font-size: 50px; margin: 0; text-align: center;\">+</p>","response":null,"trial_type":"html-keyboard-response","trial_index":7,"plugin_version":"2.1.0","time_elapsed":198895,"subject_id":"90094","group":"Group2","full_date":"2025-12-05T18:54:43.939Z","date":"2025-12-05","time":"18:54:43"},{"task":"memory_phase","broad_category":"M","image_png":"M_Slate_14.png","image_id":318,"category_name":"Slate","category":20,"distinct_rating":2.58,"distinct_type":"Bottom","rt":null,"stimulus":"Stimuli_Rocks480/M_Slate_14.png","response":null,"trial_type":"image-keyboard-response","trial_index":8,"plugin_version":"2.1.0","time_elapsed":201400,"subject_id":"90094","group":"Group2","full_date":"2025-12-05T18:54:43.939Z","date":"2025-12-05","time":"18:54:43"},{"rt":null,"stimulus":"<p style=\"font-size: 50px; margin: 0; text-align: center;\">+</p>","response":null,"trial_type":"html-keyboard-response","trial_index":9,"plugin_version":"2.1.0","time_elapsed":202404,"subject_id":"90094","group":"Group2","full_date":"2025-12-05T18:54:43.939Z","date":"2025-12-05","time":"18:54:43"},{"task":"memory_phase","broad_category":"M","image_png":"M_Slate_10.png","image_id":314,"category_name":"Slate","category":20,"distinct_rating":1.94,"distinct_type":"Bottom","rt":null,"stimulus":"Stimuli_Rocks480/M_Slate_10.png","response":null,"trial_type":"image-keyboard-response","trial_index":10,"plugin_version":"2.1.0","time_elapsed":204909,"subject_id":"90094","group":"Group2","full_date":"2025-12-05T18:54:43.939Z","date":"2025-12-05","time":"18:54:43"},{"rt":null,"stimulus":"<p style=\"font-size: 50px; margin: 0; text-align: center;\">+</p>","response":null,"trial_type":"html-keyboard-response","trial_index":11,"plugin_version":"2.1.0","time_elapsed":205912,"subject_id":"90094","group":"Group2","full_date":"2025-12-05T18:54:43.939Z","date":"2025-12-05","time":"18:54:43"},{"task":"memory_phase","broad_category":"S","image_png":"S_Shale_02.png","image_id":466,"category_name":"Shale","category":30,"distinct_rating":2.9,"distinct_type":"Bottom","rt":null,"stimulus":"Stimuli_Rocks480/S_Shale_02.png","response":null,"trial_type":"image-keyboard-response","trial_index":12,"plugin_version":"2.1.0","time_elapsed":208417,"subject_id":"90094","group":"Group2","full_date":"2025-12-05T18:54:43.939Z","date":"2025-12-05","time":"18:54:43"},{"rt":null,"stimulus":"<p style=\"font-size: 50px; margin: 0; text-align: center;\">+</p>","response":null,"trial_type":"html-keyboard-response","trial_index":13,"plugin_version":"2.1.0","time_elapsed":209420,"subject_id":"90094","group":"Group2","full_date":"2025-12-05T18:54:43.939Z","date":"2025-12-05","time":"18:54:43"},{"task":"memory_phase","broad_category":"I","image_png":"I_Diorite_01.png","image_id":33,"category_name":"Diorite","category":3,"distinct_rating":2.97,"distinct_type":"Bottom","rt":null,"stimulus":"Stimuli_Rocks480/I_Diorite_01.png","response":null,"trial_type":"image-keyboard-response","trial_index":14,"plugin_version":"2.1.0","time_elapsed":211927,"subject_id":"90094","group":"Group2","full_date":"2025-12-05T18:54:43.939Z","date":"2025-12-05","time":"18:54:43"},{"rt":null,"stimulus":"<p style=\"font-size: 50px; margin: 0; text-align: center;\">+</p>","response":null,"trial_type":"html-keyboard-response","trial_index":15,"plugin_version":"2.1.0","time_elapsed":212930,"subject_id":"90094","group":"Group2","full_date":"2025-12-05T18:54:43.939Z","date":"2025-12-05","time":"18:54:43"},{"task":"memory_phase","broad_category":"M","image_png":"M_Marble_14.png","image_id":238,"category_name":"Marble","category":15,"distinct_rating":3.31,"distinct_type":"Bottom","rt":null,"stimulus":"Stimuli_Rocks480/M_Marble_14.png","response":null,"trial_type":"image-keyboard-response","trial_index":16,"plugin_version":"2.1.0","time_elapsed":215435,"subject_id":"90094","group":"Group2","full_date":"2025-12-05T18:54:43.939Z","date":"2025-12-05","time":"18:54:43"},{"rt":null,"stimulus":"<p style=\"font-size: 50px; margin: 0; text-align: center;\">+</p>","response":null,"trial_type":"html-keyboard-response","trial_index":17,"plugin_version":"2.1.0","time_elapsed":216438,"subject_id":"90094","group":"Group2","full_date":"2025-12-05T18:54:43.939Z","date":"2025-12-05","time":"18:54:43"},{"task":"memory_phase","broad_category":"S","image_png":"S_Sandstone_11.png","image_id":459,"category_name":"Sandstone","category":29,"distinct_rating":1.82,"distinct_type":"Bottom","rt":null,"stimulus":"Stimuli_Rocks480/S_Sandstone_11.png","response":null,"trial_type":"image-keyboard-response","trial_index":18,"plugin_version":"2.1.0","time_elapsed":218942,"subject_id":"90094","group":"Group2","full_date":"2025-12-05T18:54:43.939Z","date":"2025-12-05","time":"18:54:43"},{"rt":null,"stimulus":"<p style=\"font-size: 50px; margin: 0; text-align: center;\">+</p>","response":null,"trial_type":"html-keyboard-response","trial_index":19,"plugin_version":"2.1.0","time_elapsed":219945,"subject_id":"90094","group":"Group2","full_date":"2025-12-05T18:54:43.939Z","date":"2025-12-05","time":"18:54:43"},{"task":"memory_phase","broad_category":"S","image_png":"S_Shale_03.png","image_id":467,"category_name":"Shale","category":30,"distinct_rating":1.95,"distinct_type":"Bottom","rt":null,"stimulus":"Stimuli_Rocks480/S_Shale_03.png","response":null,"trial_type":"image-keyboard-response","trial_index":20,"plugin_version":"2.1.0","time_elapsed":222449,"subject_id":"90094","group":"Group2","full_date":"2025-12-05T18:54:43.939Z","date":"2025-12-05","time":"18:54:43"},{"rt":null,"stimulus":"<p style=\"font-size: 50px; margin: 0; text-align: center;\">+</p>","response":null,"trial_type":"html-keyboard-response","trial_index":21,"plugin_version":"2.1.0","time_elapsed":223452,"subject_id":"90094","group":"Group2","full_date":"2025-12-05T18:54:43.939Z","date":"2025-12-05","time":"18:54:43"},{"task":"memory_phase","broad_category":"S","image_png":"S_Sandstone_08.png","image_id":456,"category_name":"Sandstone","category":29,"distinct_rating":1.5,"distinct_type":"Bottom","rt":null,"stimulus":"Stimuli_Rocks480/S_Sandstone_08.png","response":null,"trial_type":"image-keyboard-response","trial_index":22,"plugin_version":"2.1.0","time_elapsed":225956,"subject_id":"90094","group":"Group2","full_date":"2025-12-05T18:54:43.939Z","date":"2025-12-05","time":"18:54:43"},{"rt":null,"stimulus":"<p style=\"font-size: 50px; margin: 0; text-align: center;\">+</p>","response":null,"trial_type":"html-keyboard-response","trial_index":23,"plugin_version":"2.1.0","time_elapsed":226959,"subject_id":"90094","group":"Group2","full_date":"2025-12-05T18:54:43.939Z","date":"2025-12-05","time":"18:54:43"},{"task":"memory_phase","broad_category":"I","image_png":"I_Andesite_04.png","image_id":4,"category_name":"Andesite","category":1,"distinct_rating":3.18,"distinct_type":"Bottom","rt":null,"stimulus":"Stimuli_Rocks480/I_Andesite_04.png","response":null,"trial_type":"image-keyboard-response","trial_index":24,"plugin_version":"2.1.0","time_elapsed":229462,"subject_id":"90094","group":"Group2","full_date":"2025-12-05T18:54:43.939Z","date":"2025-12-05","time":"18:54:43"},{"rt":null,"stimulus":"<p style=\"font-size: 50px; margin: 0; text-align: center;\">+</p>","response":null,"trial_type":"html-keyboard-response","trial_index":25,"plugin_version":"2.1.0","time_elapsed":230465,"subject_id":"90094","group":"Group2","full_date":"2025-12-05T18:54:43.939Z","date":"2025-12-05","time":"18:54:43"},{"task":"memory_phase","broad_category":"I","image_png":"I_Pegmatite_03.png","image_id":99,"category_name":"Pegmatite","category":7,"distinct_rating":7.24,"distinct_type":"Top","rt":null,"stimulus":"Stimuli_Rocks480/I_Pegmatite_03.png","response":null,"trial_type":"image-keyboard-response","trial_index":26,"plugin_version":"2.1.0","time_elapsed":232969,"subject_id":"90094","group":"Group2","full_date":"2025-12-05T18:54:43.939Z","date":"2025-12-05","time":"18:54:43"},{"rt":null,"stimulus":"<p style=\"font-size: 50px; margin: 0; text-align: center;\">+</p>","response":null,"trial_type":"html-keyboard-response","trial_index":27,"plugin_version":"2.1.0","time_elapsed":233971,"subject_id":"90094","group":"Group2","full_date":"2025-12-05T18:54:43.939Z","date":"2025-12-05","time":"18:54:43"},{"task":"memory_phase","broad_category":"S","image_png":"S_Dolomite_16.png","image_id":400,"category_name":"Dolomite","category":25,"distinct_rating":1.71,"distinct_type":"Bottom","rt":null,"stimulus":"Stimuli_Rocks480/S_Dolomite_16.png","response":null,"trial_type":"image-keyboard-response","trial_index":28,"plugin_version":"2.1.0","time_elapsed":236475,"subject_id":"90094","group":"Group2","full_date":"2025-12-05T18:54:43.939Z","date":"2025-12-05","time":"18:54:43"},{"rt":null,"stimulus":"<p style=\"font-size: 50px; margin: 0; text-align: center;\">+</p>","response":null,"trial_type":"html-keyboard-response","trial_index":29,"plugin_version":"2.1.0","time_elapsed":237478,"subject_id":"90094","group":"Group2","full_date":"2025-12-05T18:54:43.939Z","date":"2025-12-05","time":"18:54:43"},{"task":"memory_phase","broad_category":"I","image_png":"I_Pumice_01.png","image_id":129,"category_name":"Pumice","category":9,"distinct_rating":3.25,"distinct_type":"Bottom","rt":null,"stimulus":"Stimuli_Rocks480/I_Pumice_01.png","response":null,"trial_type":"image-keyboard-response","trial_index":30,"plugin_version":"2.1.0","time_elapsed":239983,"subject_id":"90094","group":"Group2","full_date":"2025-12-05T18:54:43.939Z","date":"2025-12-05","time":"18:54:43"},{"rt":null,"stimulus":"<p style=\"font-size: 50px; margin: 0; text-align: center;\">+</p>","response":null,"trial_type":"html-keyboard-response","trial_index":31,"plugin_version":"2.1.0","time_elapsed":240986,"subject_id":"90094","group":"Group2","full_date":"2025-12-05T18:54:43.939Z","date":"2025-12-05","time":"18:54:43"},{"task":"memory_phase","broad_category":"M","image_png":"M_Phyllite_13.png","image_id":269,"category_name":"Phyllite","category":17,"distinct_rating":2.8,"distinct_type":"Bottom","rt":null,"stimulus":"Stimuli_Rocks480/M_Phyllite_13.png","response":null,"trial_type":"image-keyboard-response","trial_index":32,"plugin_version":"2.1.0","time_elapsed":243490,"subject_id":"90094","group":"Group2","full_date":"2025-12-05T18:54:43.939Z","date":"2025-12-05","time":"18:54:43"},{"rt":null,"stimulus":"<p style=\"font-size: 50px; margin: 0; text-align: center;\">+</p>","response":null,"trial_type":"html-keyboard-response","trial_index":33,"plugin_version":"2.1.0","time_elapsed":244493,"subject_id":"90094","group":"Group2","full_date":"2025-12-05T18:54:43.939Z","date":"2025-12-05","time":"18:54:43"},{"task":"memory_phase","broad_category":"I","image_png":"I_Gabbro_14.png","image_id":62,"category_name":"Gabbro","category":4,"distinct_rating":2.95,"distinct_type":"Bottom","rt":null,"stimulus":"Stimuli_Rocks480/I_Gabbro_14.png","response":null,"trial_type":"image-keyboard-response","trial_index":34,"plugin_version":"2.1.0","time_elapsed":246997,"subject_id":"90094","group":"Group2","full_date":"2025-12-05T18:54:43.939Z","date":"2025-12-05","time":"18:54:43"},{"rt":null,"stimulus":"<p style=\"font-size: 50px; margin: 0; text-align: center;\">+</p>","response":null,"trial_type":"html-keyboard-response","trial_index":35,"plugin_version":"2.1.0","time_elapsed":247999,"subject_id":"90094","group":"Group2","full_date":"2025-12-05T18:54:43.939Z","date":"2025-12-05","time":"18:54:43"},{"task":"memory_phase","broad_category":"S","image_png":"S_Conglomerate_14.png","image_id":382,"category_name":"Conglomerate","category":24,"distinct_rating":6.86,"distinct_type":"Top","rt":null,"stimulus":"Stimuli_Rocks480/S_Conglomerate_14.png","response":null,"trial_type":"image-keyboard-response","trial_index":36,"plugin_version":"2.1.0","time_elapsed":250504,"subject_id":"90094","group":"Group2","full_date":"2025-12-05T18:54:43.939Z","date":"2025-12-05","time":"18:54:43"},{"rt":null,"stimulus":"<p style=\"font-size: 50px; margin: 0; text-align: center;\">+</p>","response":null,"trial_type":"html-keyboard-response","trial_index":37,"plugin_version":"2.1.0","time_elapsed":251507,"subject_id":"90094","group":"Group2","full_date":"2025-12-05T18:54:43.939Z","date":"2025-12-05","time":"18:54:43"},{"task":"memory_phase","broad_category":"I","image_png":"I_Pegmatite_11.png","image_id":107,"category_name":"Pegmatite","category":7,"distinct_rating":7.11,"distinct_type":"Top","rt":null,"stimulus":"Stimuli_Rocks480/I_Pegmatite_11.png","response":null,"trial_type":"image-keyboard-response","trial_index":38,"plugin_version":"2.1.0","time_elapsed":254011,"subject_id":"90094","group":"Group2","full_date":"2025-12-05T18:54:43.939Z","date":"2025-12-05","time":"18:54:43"},{"rt":null,"stimulus":"<p style=\"font-size: 50px; margin: 0; text-align: center;\">+</p>","response":null,"trial_type":"html-keyboard-response","trial_index":39,"plugin_version":"2.1.0","time_elapsed":255014,"subject_id":"90094","group":"Group2","full_date":"2025-12-05T18:54:43.939Z","date":"2025-12-05","time":"18:54:43"},{"task":"memory_phase","broad_category":"M","image_png":"M_Quartzite_15.png","image_id":287,"category_name":"Quartzite","category":18,"distinct_rating":2.19,"distinct_type":"Bottom","rt":null,"stimulus":"Stimuli_Rocks480/M_Quartzite_15.png","response":null,"trial_type":"image-keyboard-response","trial_index":40,"plugin_version":"2.1.0","time_elapsed":257517,"subject_id":"90094","group":"Group2","full_date":"2025-12-05T18:54:43.939Z","date":"2025-12-05","time":"18:54:43"},{"rt":null,"stimulus":"<p style=\"font-size: 50px; margin: 0; text-align: center;\">+</p>","response":null,"trial_type":"html-keyboard-response","trial_index":41,"plugin_version":"2.1.0","time_elapsed":258519,"subject_id":"90094","group":"Group2","full_date":"2025-12-05T18:54:43.939Z","date":"2025-12-05","time":"18:54:43"},{"task":"memory_phase","broad_category":"I","image_png":"I_Rhyolite_05.png","image_id":149,"category_name":"Rhyolite","category":10,"distinct_rating":3.02,"distinct_type":"Bottom","rt":null,"stimulus":"Stimuli_Rocks480/I_Rhyolite_05.png","response":null,"trial_type":"image-keyboard-response","trial_index":42,"plugin_version":"2.1.0","time_elapsed":261024,"subject_id":"90094","group":"Group2","full_date":"2025-12-05T18:54:43.939Z","date":"2025-12-05","time":"18:54:43"},{"rt":null,"stimulus":"<p style=\"font-size: 50px; margin: 0; text-align: center;\">+</p>","response":null,"trial_type":"html-keyboard-response","trial_index":43,"plugin_version":"2.1.0","time_elapsed":262026,"subject_id":"90094","group":"Group2","full_date":"2025-12-05T18:54:43.939Z","date":"2025-12-05","time":"18:54:43"},{"task":"memory_phase","broad_category":"M","image_png":"M_Quartzite_07.png","image_id":279,"category_name":"Quartzite","category":18,"distinct_rating":1.97,"distinct_type":"Bottom","rt":null,"stimulus":"Stimuli_Rocks480/M_Quartzite_07.png","response":null,"trial_type":"image-keyboard-response","trial_index":44,"plugin_version":"2.1.0","time_elapsed":264531,"subject_id":"90094","group":"Group2","full_date":"2025-12-05T18:54:43.939Z","date":"2025-12-05","time":"18:54:43"},{"rt":null,"stimulus":"<p style=\"font-size: 50px; margin: 0; text-align: center;\">+</p>","response":null,"trial_type":"html-keyboard-response","trial_index":45,"plugin_version":"2.1.0","time_elapsed":265534,"subject_id":"90094","group":"Group2","full_date":"2025-12-05T18:54:43.939Z","date":"2025-12-05","time":"18:54:43"},{"task":"memory_phase","broad_category":"M","image_png":"M_Gneiss_15.png","image_id":207,"category_name":"Gneiss","category":13,"distinct_rating":3.11,"distinct_type":"Bottom","rt":null,"stimulus":"Stimuli_Rocks480/M_Gneiss_15.png","response":null,"trial_type":"image-keyboard-response","trial_index":46,"plugin_version":"2.1.0","time_elapsed":268038,"subject_id":"90094","group":"Group2","full_date":"2025-12-05T18:54:43.939Z","date":"2025-12-05","time":"18:54:43"},{"rt":null,"stimulus":"<p style=\"font-size: 50px; margin: 0; text-align: center;\">+</p>","response":null,"trial_type":"html-keyboard-response","trial_index":47,"plugin_version":"2.1.0","time_elapsed":269040,"subject_id":"90094","group":"Group2","full_date":"2025-12-05T18:54:43.939Z","date":"2025-12-05","time":"18:54:43"},{"task":"memory_phase","broad_category":"I","image_png":"I_Gabbro_12.png","image_id":60,"category_name":"Gabbro","category":4,"distinct_rating":2.6,"distinct_type":"Bottom","rt":null,"stimulus":"Stimuli_Rocks480/I_Gabbro_12.png","response":null,"trial_type":"image-keyboard-response","trial_index":48,"plugin_version":"2.1.0","time_elapsed":271544,"subject_id":"90094","group":"Group2","full_date":"2025-12-05T18:54:43.939Z","date":"2025-12-05","time":"18:54:43"},{"rt":null,"stimulus":"<p style=\"font-size: 50px; margin: 0; text-align: center;\">+</p>","response":null,"trial_type":"html-keyboard-response","trial_index":49,"plugin_version":"2.1.0","time_elapsed":272547,"subject_id":"90094","group":"Group2","full_date":"2025-12-05T18:54:43.939Z","date":"2025-12-05","time":"18:54:43"},{"task":"memory_phase","broad_category":"S","image_png":"S_Shale_07.png","image_id":471,"category_name":"Shale","category":30,"distinct_rating":2.73,"distinct_type":"Bottom","rt":null,"stimulus":"Stimuli_Rocks480/S_Shale_07.png","response":null,"trial_type":"image-keyboard-response","trial_index":50,"plugin_version":"2.1.0","time_elapsed":275051,"subject_id":"90094","group":"Group2","full_date":"2025-12-05T18:54:43.939Z","date":"2025-12-05","time":"18:54:43"},{"rt":null,"stimulus":"<p style=\"font-size: 50px; margin: 0; text-align: center;\">+</p>","response":null,"trial_type":"html-keyboard-response","trial_index":51,"plugin_version":"2.1.0","time_elapsed":276053,"subject_id":"90094","group":"Group2","full_date":"2025-12-05T18:54:43.939Z","date":"2025-12-05","time":"18:54:43"},{"task":"memory_phase","broad_category":"I","image_png":"I_Diorite_15.png","image_id":47,"category_name":"Diorite","category":3,"distinct_rating":3.05,"distinct_type":"Bottom","rt":null,"stimulus":"Stimuli_Rocks480/I_Diorite_15.png","response":null,"trial_type":"image-keyboard-response","trial_index":52,"plugin_version":"2.1.0","time_elapsed":278557,"subject_id":"90094","group":"Group2","full_date":"2025-12-05T18:54:43.939Z","date":"2025-12-05","time":"18:54:43"},{"rt":null,"stimulus":"<p style=\"font-size: 50px; margin: 0; text-align: center;\">+</p>","response":null,"trial_type":"html-keyboard-response","trial_index":53,"plugin_version":"2.1.0","time_elapsed":279560,"subject_id":"90094","group":"Group2","full_date":"2025-12-05T18:54:43.939Z","date":"2025-12-05","time":"18:54:43"},{"task":"memory_phase","broad_category":"I","image_png":"I_Gabbro_02.png","image_id":50,"category_name":"Gabbro","category":4,"distinct_rating":2.73,"distinct_type":"Bottom","rt":null,"stimulus":"Stimuli_Rocks480/I_Gabbro_02.png","response":null,"trial_type":"image-keyboard-response","trial_index":54,"plugin_version":"2.1.0","time_elapsed":282063,"subject_id":"90094","group":"Group2","full_date":"2025-12-05T18:54:43.939Z","date":"2025-12-05","time":"18:54:43"},{"rt":3180,"stimulus":"<p style=\"max-width: 760px; margin: auto; font-size: 35px; line-height: 1.5;\">Press SPACE to continue study phase</p>","response":" ","trial_type":"html-keyboard-response","trial_index":55,"plugin_version":"2.1.0","time_elapsed":285246,"subject_id":"90094","group":"Group2","full_date":"2025-12-05T18:54:43.939Z","date":"2025-12-05","time":"18:54:43"},{"rt":null,"stimulus":"<p style=\"font-size: 50px; margin: 0; text-align: center;\">+</p>","response":null,"trial_type":"html-keyboard-response","trial_index":56,"plugin_version":"2.1.0","time_elapsed":286248,"subject_id":"90094","group":"Group2","full_date":"2025-12-05T18:54:43.939Z","date":"2025-12-05","time":"18:54:43"},{"task":"memory_phase","broad_category":"M","image_png":"M_Slate_04.png","image_id":308,"category_name":"Slate","category":20,"distinct_rating":2.2,"distinct_type":"Bottom","rt":null,"stimulus":"Stimuli_Rocks480/M_Slate_04.png","response":null,"trial_type":"image-keyboard-response","trial_index":57,"plugin_version":"2.1.0","time_elapsed":288751,"subject_id":"90094","group":"Group2","full_date":"2025-12-05T18:54:43.939Z","date":"2025-12-05","time":"18:54:43"},{"rt":null,"stimulus":"<p style=\"font-size: 50px; margin: 0; text-align: center;\">+</p>","response":null,"trial_type":"html-keyboard-response","trial_index":58,"plugin_version":"2.1.0","time_elapsed":289754,"subject_id":"90094","group":"Group2","full_date":"2025-12-05T18:54:43.939Z","date":"2025-12-05","time":"18:54:43"},{"task":"memory_phase","broad_category":"M","image_png":"M_Gneiss_10.png","image_id":202,"category_name":"Gneiss","category":13,"distinct_rating":3.09,"distinct_type":"Bottom","rt":null,"stimulus":"Stimuli_Rocks480/M_Gneiss_10.png","response":null,"trial_type":"image-keyboard-response","trial_index":59,"plugin_version":"2.1.0","time_elapsed":292258,"subject_id":"90094","group":"Group2","full_date":"2025-12-05T18:54:43.939Z","date":"2025-12-05","time":"18:54:43"},{"rt":null,"stimulus":"<p style=\"font-size: 50px; margin: 0; text-align: center;\">+</p>","response":null,"trial_type":"html-keyboard-response","trial_index":60,"plugin_version":"2.1.0","time_elapsed":293261,"subject_id":"90094","group":"Group2","full_date":"2025-12-05T18:54:43.939Z","date":"2025-12-05","time":"18:54:43"},{"task":"memory_phase","broad_category":"I","image_png":"I_Rhyolite_10.png","image_id":154,"category_name":"Rhyolite","category":10,"distinct_rating":2.88,"distinct_type":"Bottom","rt":null,"stimulus":"Stimuli_Rocks480/I_Rhyolite_10.png","response":null,"trial_type":"image-keyboard-response","trial_index":61,"plugin_version":"2.1.0","time_elapsed":295765,"subject_id":"90094","group":"Group2","full_date":"2025-12-05T18:54:43.939Z","date":"2025-12-05","time":"18:54:43"},{"rt":null,"stimulus":"<p style=\"font-size: 50px; margin: 0; text-align: center;\">+</p>","response":null,"trial_type":"html-keyboard-response","trial_index":62,"plugin_version":"2.1.0","time_elapsed":296768,"subject_id":"90094","group":"Group2","full_date":"2025-12-05T18:54:43.939Z","date":"2025-12-05","time":"18:54:43"},{"task":"memory_phase","broad_category":"I","image_png":"I_Andesite_03.png","image_id":3,"category_name":"Andesite","category":1,"distinct_rating":3.17,"distinct_type":"Bottom","rt":null,"stimulus":"Stimuli_Rocks480/I_Andesite_03.png","response":null,"trial_type":"image-keyboard-response","trial_index":63,"plugin_version":"2.1.0","time_elapsed":299271,"subject_id":"90094","group":"Group2","full_date":"2025-12-05T18:54:43.939Z","date":"2025-12-05","time":"18:54:43"},{"rt":null,"stimulus":"<p style=\"font-size: 50px; margin: 0; text-align: center;\">+</p>","response":null,"trial_type":"html-keyboard-response","trial_index":64,"plugin_version":"2.1.0","time_elapsed":300274,"subject_id":"90094","group":"Group2","full_date":"2025-12-05T18:54:43.939Z","date":"2025-12-05","time":"18:54:43"},{"task":"memory_phase","broad_category":"S","image_png":"S_Rock Salt_15.png","image_id":447,"category_name":"Rock Salt","category":28,"distinct_rating":7.79,"distinct_type":"Top","rt":null,"stimulus":"Stimuli_Rocks480/S_Rock Salt_15.png","response":null,"trial_type":"image-keyboard-response","trial_index":65,"plugin_version":"2.1.0","time_elapsed":302778,"subject_id":"90094","group":"Group2","full_date":"2025-12-05T18:54:43.939Z","date":"2025-12-05","time":"18:54:43"},{"rt":null,"stimulus":"<p style=\"font-size: 50px; margin: 0; text-align: center;\">+</p>","response":null,"trial_type":"html-keyboard-response","trial_index":66,"plugin_version":"2.1.0","time_elapsed":303781,"subject_id":"90094","group":"Group2","full_date":"2025-12-05T18:54:43.939Z","date":"2025-12-05","time":"18:54:43"},{"task":"memory_phase","broad_category":"M","image_png":"M_Gneiss_14.png","image_id":206,"category_name":"Gneiss","category":13,"distinct_rating":3.41,"distinct_type":"Bottom","rt":null,"stimulus":"Stimuli_Rocks480/M_Gneiss_14.png","response":null,"trial_type":"image-keyboard-response","trial_index":67,"plugin_version":"2.1.0","time_elapsed":306286,"subject_id":"90094","group":"Group2","full_date":"2025-12-05T18:54:43.939Z","date":"2025-12-05","time":"18:54:43"},{"rt":null,"stimulus":"<p style=\"font-size: 50px; margin: 0; text-align: center;\">+</p>","response":null,"trial_type":"html-keyboard-response","trial_index":68,"plugin_version":"2.1.0","time_elapsed":307288,"subject_id":"90094","group":"Group2","full_date":"2025-12-05T18:54:43.939Z","date":"2025-12-05","time":"18:54:43"},{"task":"memory_phase","broad_category":"M","image_png":"M_Marble_03.png","image_id":227,"category_name":"Marble","category":15,"distinct_rating":2.67,"distinct_type":"Bottom","rt":null,"stimulus":"Stimuli_Rocks480/M_Marble_03.png","response":null,"trial_type":"image-keyboard-response","trial_index":69,"plugin_version":"2.1.0","time_elapsed":309793,"subject_id":"90094","group":"Group2","full_date":"2025-12-05T18:54:43.939Z","date":"2025-12-05","time":"18:54:43"},{"rt":null,"stimulus":"<p style=\"font-size: 50px; margin: 0; text-align: center;\">+</p>","response":null,"trial_type":"html-keyboard-response","trial_index":70,"plugin_version":"2.1.0","time_elapsed":310795,"subject_id":"90094","group":"Group2","full_date":"2025-12-05T18:54:43.939Z","date":"2025-12-05","time":"18:54:43"},{"task":"memory_phase","broad_category":"I","image_png":"I_Basalt_10.png","image_id":26,"category_name":"Basalt","category":2,"distinct_rating":2.76,"distinct_type":"Bottom","rt":null,"stimulus":"Stimuli_Rocks480/I_Basalt_10.png","response":null,"trial_type":"image-keyboard-response","trial_index":71,"plugin_version":"2.1.0","time_elapsed":313298,"subject_id":"90094","group":"Group2","full_date":"2025-12-05T18:54:43.939Z","date":"2025-12-05","time":"18:54:43"},{"rt":null,"stimulus":"<p style=\"font-size: 50px; margin: 0; text-align: center;\">+</p>","response":null,"trial_type":"html-keyboard-response","trial_index":72,"plugin_version":"2.1.0","time_elapsed":314301,"subject_id":"90094","group":"Group2","full_date":"2025-12-05T18:54:43.939Z","date":"2025-12-05","time":"18:54:43"},{"task":"memory_phase","broad_category":"I","image_png":"I_Pumice_13.png","image_id":141,"category_name":"Pumice","category":9,"distinct_rating":3.12,"distinct_type":"Bottom","rt":null,"stimulus":"Stimuli_Rocks480/I_Pumice_13.png","response":null,"trial_type":"image-keyboard-response","trial_index":73,"plugin_version":"2.1.0","time_elapsed":316805,"subject_id":"90094","group":"Group2","full_date":"2025-12-05T18:54:43.939Z","date":"2025-12-05","time":"18:54:43"},{"rt":null,"stimulus":"<p style=\"font-size: 50px; margin: 0; text-align: center;\">+</p>","response":null,"trial_type":"html-keyboard-response","trial_index":74,"plugin_version":"2.1.0","time_elapsed":317807,"subject_id":"90094","group":"Group2","full_date":"2025-12-05T18:54:43.939Z","date":"2025-12-05","time":"18:54:43"},{"task":"memory_phase","broad_category":"S","image_png":"S_Chert_13.png","image_id":365,"category_name":"Chert","category":23,"distinct_rating":6.57,"distinct_type":"Top","rt":null,"stimulus":"Stimuli_Rocks480/S_Chert_13.png","response":null,"trial_type":"image-keyboard-response","trial_index":75,"plugin_version":"2.1.0","time_elapsed":320310,"subject_id":"90094","group":"Group2","full_date":"2025-12-05T18:54:43.939Z","date":"2025-12-05","time":"18:54:43"},{"rt":null,"stimulus":"<p style=\"font-size: 50px; margin: 0; text-align: center;\">+</p>","response":null,"trial_type":"html-keyboard-response","trial_index":76,"plugin_version":"2.1.0","time_elapsed":321312,"subject_id":"90094","group":"Group2","full_date":"2025-12-05T18:54:43.939Z","date":"2025-12-05","time":"18:54:43"},{"task":"memory_phase","broad_category":"M","image_png":"M_Marble_02.png","image_id":226,"category_name":"Marble","category":15,"distinct_rating":3.2,"distinct_type":"Bottom","rt":null,"stimulus":"Stimuli_Rocks480/M_Marble_02.png","response":null,"trial_type":"image-keyboard-response","trial_index":77,"plugin_version":"2.1.0","time_elapsed":323816,"subject_id":"90094","group":"Group2","full_date":"2025-12-05T18:54:43.939Z","date":"2025-12-05","time":"18:54:43"},{"rt":null,"stimulus":"<p style=\"font-size: 50px; margin: 0; text-align: center;\">+</p>","response":null,"trial_type":"html-keyboard-response","trial_index":78,"plugin_version":"2.1.0","time_elapsed":324818,"subject_id":"90094","group":"Group2","full_date":"2025-12-05T18:54:43.939Z","date":"2025-12-05","time":"18:54:43"},{"task":"memory_phase","broad_category":"M","image_png":"M_Phyllite_05.png","image_id":261,"category_name":"Phyllite","category":17,"distinct_rating":2.14,"distinct_type":"Bottom","rt":null,"stimulus":"Stimuli_Rocks480/M_Phyllite_05.png","response":null,"trial_type":"image-keyboard-response","trial_index":79,"plugin_version":"2.1.0","time_elapsed":327321,"subject_id":"90094","group":"Group2","full_date":"2025-12-05T18:54:43.939Z","date":"2025-12-05","time":"18:54:43"},{"rt":null,"stimulus":"<p style=\"font-size: 50px; margin: 0; text-align: center;\">+</p>","response":null,"trial_type":"html-keyboard-response","trial_index":80,"plugin_version":"2.1.0","time_elapsed":328324,"subject_id":"90094","group":"Group2","full_date":"2025-12-05T18:54:43.939Z","date":"2025-12-05","time":"18:54:43"},{"task":"memory_phase","broad_category":"I","image_png":"I_Pumice_14.png","image_id":142,"category_name":"Pumice","category":9,"distinct_rating":3.22,"distinct_type":"Bottom","rt":null,"stimulus":"Stimuli_Rocks480/I_Pumice_14.png","response":null,"trial_type":"image-keyboard-response","trial_index":81,"plugin_version":"2.1.0","time_elapsed":330827,"subject_id":"90094","group":"Group2","full_date":"2025-12-05T18:54:43.939Z","date":"2025-12-05","time":"18:54:43"},{"rt":null,"stimulus":"<p style=\"font-size: 50px; margin: 0; text-align: center;\">+</p>","response":null,"trial_type":"html-keyboard-response","trial_index":82,"plugin_version":"2.1.0","time_elapsed":331829,"subject_id":"90094","group":"Group2","full_date":"2025-12-05T18:54:43.939Z","date":"2025-12-05","time":"18:54:43"},{"task":"memory_phase","broad_category":"S","image_png":"S_Dolomite_01.png","image_id":385,"category_name":"Dolomite","category":25,"distinct_rating":1.43,"distinct_type":"Bottom","rt":null,"stimulus":"Stimuli_Rocks480/S_Dolomite_01.png","response":null,"trial_type":"image-keyboard-response","trial_index":83,"plugin_version":"2.1.0","time_elapsed":334332,"subject_id":"90094","group":"Group2","full_date":"2025-12-05T18:54:43.939Z","date":"2025-12-05","time":"18:54:43"},{"rt":null,"stimulus":"<p style=\"font-size: 50px; margin: 0; text-align: center;\">+</p>","response":null,"trial_type":"html-keyboard-response","trial_index":84,"plugin_version":"2.1.0","time_elapsed":335335,"subject_id":"90094","group":"Group2","full_date":"2025-12-05T18:54:43.939Z","date":"2025-12-05","time":"18:54:43"},{"task":"memory_phase","broad_category":"S","image_png":"S_Dolomite_07.png","image_id":391,"category_name":"Dolomite","category":25,"distinct_rating":1.73,"distinct_type":"Bottom","rt":null,"stimulus":"Stimuli_Rocks480/S_Dolomite_07.png","response":null,"trial_type":"image-keyboard-response","trial_index":85,"plugin_version":"2.1.0","time_elapsed":337838,"subject_id":"90094","group":"Group2","full_date":"2025-12-05T18:54:43.939Z","date":"2025-12-05","time":"18:54:43"},{"rt":null,"stimulus":"<p style=\"font-size: 50px; margin: 0; text-align: center;\">+</p>","response":null,"trial_type":"html-keyboard-response","trial_index":86,"plugin_version":"2.1.0","time_elapsed":338841,"subject_id":"90094","group":"Group2","full_date":"2025-12-05T18:54:43.939Z","date":"2025-12-05","time":"18:54:43"},{"task":"memory_phase","broad_category":"I","image_png":"I_Basalt_13.png","image_id":29,"category_name":"Basalt","category":2,"distinct_rating":2.68,"distinct_type":"Bottom","rt":null,"stimulus":"Stimuli_Rocks480/I_Basalt_13.png","response":null,"trial_type":"image-keyboard-response","trial_index":87,"plugin_version":"2.1.0","time_elapsed":341344,"subject_id":"90094","group":"Group2","full_date":"2025-12-05T18:54:43.939Z","date":"2025-12-05","time":"18:54:43"},{"rt":null,"stimulus":"<p style=\"font-size: 50px; margin: 0; text-align: center;\">+</p>","response":null,"trial_type":"html-keyboard-response","trial_index":88,"plugin_version":"2.1.0","time_elapsed":342347,"subject_id":"90094","group":"Group2","full_date":"2025-12-05T18:54:43.939Z","date":"2025-12-05","time":"18:54:43"},{"task":"memory_phase","broad_category":"I","image_png":"I_Rhyolite_08.png","image_id":152,"category_name":"Rhyolite","category":10,"distinct_rating":1.38,"distinct_type":"Bottom","rt":null,"stimulus":"Stimuli_Rocks480/I_Rhyolite_08.png","response":null,"trial_type":"image-keyboard-response","trial_index":89,"plugin_version":"2.1.0","time_elapsed":344849,"subject_id":"90094","group":"Group2","full_date":"2025-12-05T18:54:43.939Z","date":"2025-12-05","time":"18:54:43"},{"rt":null,"stimulus":"<p style=\"font-size: 50px; margin: 0; text-align: center;\">+</p>","response":null,"trial_type":"html-keyboard-response","trial_index":90,"plugin_version":"2.1.0","time_elapsed":345852,"subject_id":"90094","group":"Group2","full_date":"2025-12-05T18:54:43.939Z","date":"2025-12-05","time":"18:54:43"},{"task":"memory_phase","broad_category":"M","image_png":"M_Quartzite_12.png","image_id":284,"category_name":"Quartzite","category":18,"distinct_rating":1.92,"distinct_type":"Bottom","rt":null,"stimulus":"Stimuli_Rocks480/M_Quartzite_12.png","response":null,"trial_type":"image-keyboard-response","trial_index":91,"plugin_version":"2.1.0","time_elapsed":348356,"subject_id":"90094","group":"Group2","full_date":"2025-12-05T18:54:43.939Z","date":"2025-12-05","time":"18:54:43"},{"rt":null,"stimulus":"<p style=\"font-size: 50px; margin: 0; text-align: center;\">+</p>","response":null,"trial_type":"html-keyboard-response","trial_index":92,"plugin_version":"2.1.0","time_elapsed":349359,"subject_id":"90094","group":"Group2","full_date":"2025-12-05T18:54:43.939Z","date":"2025-12-05","time":"18:54:43"},{"task":"memory_phase","broad_category":"S","image_png":"S_Sandstone_04.png","image_id":452,"category_name":"Sandstone","category":29,"distinct_rating":1.8,"distinct_type":"Bottom","rt":null,"stimulus":"Stimuli_Rocks480/S_Sandstone_04.png","response":null,"trial_type":"image-keyboard-response","trial_index":93,"plugin_version":"2.1.0","time_elapsed":351862,"subject_id":"90094","group":"Group2","full_date":"2025-12-05T18:54:43.939Z","date":"2025-12-05","time":"18:54:43"},{"rt":null,"stimulus":"<p style=\"font-size: 50px; margin: 0; text-align: center;\">+</p>","response":null,"trial_type":"html-keyboard-response","trial_index":94,"plugin_version":"2.1.0","time_elapsed":352865,"subject_id":"90094","group":"Group2","full_date":"2025-12-05T18:54:43.939Z","date":"2025-12-05","time":"18:54:43"},{"task":"memory_phase","broad_category":"I","image_png":"I_Peridotite_13.png","image_id":125,"category_name":"Peridotite","category":8,"distinct_rating":7.28,"distinct_type":"Top","rt":null,"stimulus":"Stimuli_Rocks480/I_Peridotite_13.png","response":null,"trial_type":"image-keyboard-response","trial_index":95,"plugin_version":"2.1.0","time_elapsed":355368,"subject_id":"90094","group":"Group2","full_date":"2025-12-05T18:54:43.939Z","date":"2025-12-05","time":"18:54:43"},{"rt":null,"stimulus":"<p style=\"font-size: 50px; margin: 0; text-align: center;\">+</p>","response":null,"trial_type":"html-keyboard-response","trial_index":96,"plugin_version":"2.1.0","time_elapsed":356371,"subject_id":"90094","group":"Group2","full_date":"2025-12-05T18:54:43.939Z","date":"2025-12-05","time":"18:54:43"},{"task":"memory_phase","broad_category":"I","image_png":"I_Andesite_09.png","image_id":9,"category_name":"Andesite","category":1,"distinct_rating":2.49,"distinct_type":"Bottom","rt":null,"stimulus":"Stimuli_Rocks480/I_Andesite_09.png","response":null,"trial_type":"image-keyboard-response","trial_index":97,"plugin_version":"2.1.0","time_elapsed":358874,"subject_id":"90094","group":"Group2","full_date":"2025-12-05T18:54:43.939Z","date":"2025-12-05","time":"18:54:43"},{"rt":null,"stimulus":"<p style=\"font-size: 50px; margin: 0; text-align: center;\">+</p>","response":null,"trial_type":"html-keyboard-response","trial_index":98,"plugin_version":"2.1.0","time_elapsed":359877,"subject_id":"90094","group":"Group2","full_date":"2025-12-05T18:54:43.939Z","date":"2025-12-05","time":"18:54:43"},{"task":"memory_phase","broad_category":"I","image_png":"I_Diorite_10.png","image_id":42,"category_name":"Diorite","category":3,"distinct_rating":2.84,"distinct_type":"Bottom","rt":null,"stimulus":"Stimuli_Rocks480/I_Diorite_10.png","response":null,"trial_type":"image-keyboard-response","trial_index":99,"plugin_version":"2.1.0","time_elapsed":362380,"subject_id":"90094","group":"Group2","full_date":"2025-12-05T18:54:43.939Z","date":"2025-12-05","time":"18:54:43"},{"rt":null,"stimulus":"<p style=\"font-size: 50px; margin: 0; text-align: center;\">+</p>","response":null,"trial_type":"html-keyboard-response","trial_index":100,"plugin_version":"2.1.0","time_elapsed":363384,"subject_id":"90094","group":"Group2","full_date":"2025-12-05T18:54:43.939Z","date":"2025-12-05","time":"18:54:43"},{"task":"memory_phase","broad_category":"I","image_png":"I_Obsidian_06.png","image_id":86,"category_name":"Obsidian","category":6,"distinct_rating":8.01,"distinct_type":"Top","rt":null,"stimulus":"Stimuli_Rocks480/I_Obsidian_06.png","response":null,"trial_type":"image-keyboard-response","trial_index":101,"plugin_version":"2.1.0","time_elapsed":365887,"subject_id":"90094","group":"Group2","full_date":"2025-12-05T18:54:43.939Z","date":"2025-12-05","time":"18:54:43"},{"rt":null,"stimulus":"<p style=\"font-size: 50px; margin: 0; text-align: center;\">+</p>","response":null,"trial_type":"html-keyboard-response","trial_index":102,"plugin_version":"2.1.0","time_elapsed":366890,"subject_id":"90094","group":"Group2","full_date":"2025-12-05T18:54:43.939Z","date":"2025-12-05","time":"18:54:43"},{"task":"memory_phase","broad_category":"M","image_png":"M_Phyllite_02.png","image_id":258,"category_name":"Phyllite","category":17,"distinct_rating":2.89,"distinct_type":"Bottom","rt":null,"stimulus":"Stimuli_Rocks480/M_Phyllite_02.png","response":null,"trial_type":"image-keyboard-response","trial_index":103,"plugin_version":"2.1.0","time_elapsed":369393,"subject_id":"90094","group":"Group2","full_date":"2025-12-05T18:54:43.939Z","date":"2025-12-05","time":"18:54:43"},{"rt":null,"stimulus":"<p style=\"font-size: 50px; margin: 0; text-align: center;\">+</p>","response":null,"trial_type":"html-keyboard-response","trial_index":104,"plugin_version":"2.1.0","time_elapsed":370396,"subject_id":"90094","group":"Group2","full_date":"2025-12-05T18:54:43.939Z","date":"2025-12-05","time":"18:54:43"},{"task":"memory_phase","broad_category":"I","image_png":"I_Basalt_08.png","image_id":24,"category_name":"Basalt","category":2,"distinct_rating":2.31,"distinct_type":"Bottom","rt":null,"stimulus":"Stimuli_Rocks480/I_Basalt_08.png","response":null,"trial_type":"image-keyboard-response","trial_index":105,"plugin_version":"2.1.0","time_elapsed":372900,"subject_id":"90094","group":"Group2","full_date":"2025-12-05T18:54:43.939Z","date":"2025-12-05","time":"18:54:43"},{"rt":10016,"stimulus":"<p style=\"max-width: 760px; margin: auto; font-size: 35px; line-height: 1.5;\">You have completed 1 study phase. Now, we'll show you all the images again 2 more times.<br><br>Press SPACE to continue</p>","response":" ","trial_type":"html-keyboard-response","trial_index":106,"plugin_version":"2.1.0","time_elapsed":382917,"subject_id":"90094","group":"Group2","full_date":"2025-12-05T18:54:43.939Z","date":"2025-12-05","time":"18:54:43"},{"rt":null,"stimulus":"<p style=\"font-size: 50px; margin: 0; text-align: center;\">+</p>","response":null,"trial_type":"html-keyboard-response","trial_index":107,"plugin_version":"2.1.0","time_elapsed":383919,"subject_id":"90094","group":"Group2","full_date":"2025-12-05T18:54:43.939Z","date":"2025-12-05","time":"18:54:43"},{"task":"memory_phase","broad_category":"M","image_png":"M_Slate_14.png","image_id":318,"category_name":"Slate","category":20,"distinct_rating":2.58,"distinct_type":"Bottom","rt":null,"stimulus":"Stimuli_Rocks480/M_Slate_14.png","response":null,"trial_type":"image-keyboard-response","trial_index":108,"plugin_version":"2.1.0","time_elapsed":386422,"subject_id":"90094","group":"Group2","full_date":"2025-12-05T18:54:43.939Z","date":"2025-12-05","time":"18:54:43"},{"rt":null,"stimulus":"<p style=\"font-size: 50px; margin: 0; text-align: center;\">+</p>","response":null,"trial_type":"html-keyboard-response","trial_index":109,"plugin_version":"2.1.0","time_elapsed":387425,"subject_id":"90094","group":"Group2","full_date":"2025-12-05T18:54:43.939Z","date":"2025-12-05","time":"18:54:43"},{"task":"memory_phase","broad_category":"I","image_png":"I_Andesite_09.png","image_id":9,"category_name":"Andesite","category":1,"distinct_rating":2.49,"distinct_type":"Bottom","rt":null,"stimulus":"Stimuli_Rocks480/I_Andesite_09.png","response":null,"trial_type":"image-keyboard-response","trial_index":110,"plugin_version":"2.1.0","time_elapsed":389927,"subject_id":"90094","group":"Group2","full_date":"2025-12-05T18:54:43.939Z","date":"2025-12-05","time":"18:54:43"},{"rt":null,"stimulus":"<p style=\"font-size: 50px; margin: 0; text-align: center;\">+</p>","response":null,"trial_type":"html-keyboard-response","trial_index":111,"plugin_version":"2.1.0","time_elapsed":390930,"subject_id":"90094","group":"Group2","full_date":"2025-12-05T18:54:43.939Z","date":"2025-12-05","time":"18:54:43"},{"task":"memory_phase","broad_category":"M","image_png":"M_Quartzite_12.png","image_id":284,"category_name":"Quartzite","category":18,"distinct_rating":1.92,"distinct_type":"Bottom","rt":null,"stimulus":"Stimuli_Rocks480/M_Quartzite_12.png","response":null,"trial_type":"image-keyboard-response","trial_index":112,"plugin_version":"2.1.0","time_elapsed":393433,"subject_id":"90094","group":"Group2","full_date":"2025-12-05T18:54:43.939Z","date":"2025-12-05","time":"18:54:43"},{"rt":null,"stimulus":"<p style=\"font-size: 50px; margin: 0; text-align: center;\">+</p>","response":null,"trial_type":"html-keyboard-response","trial_index":113,"plugin_version":"2.1.0","time_elapsed":394437,"subject_id":"90094","group":"Group2","full_date":"2025-12-05T18:54:43.939Z","date":"2025-12-05","time":"18:54:43"},{"task":"memory_phase","broad_category":"I","image_png":"I_Basalt_08.png","image_id":24,"category_name":"Basalt","category":2,"distinct_rating":2.31,"distinct_type":"Bottom","rt":null,"stimulus":"Stimuli_Rocks480/I_Basalt_08.png","response":null,"trial_type":"image-keyboard-response","trial_index":114,"plugin_version":"2.1.0","time_elapsed":396940,"subject_id":"90094","group":"Group2","full_date":"2025-12-05T18:54:43.939Z","date":"2025-12-05","time":"18:54:43"},{"rt":null,"stimulus":"<p style=\"font-size: 50px; margin: 0; text-align: center;\">+</p>","response":null,"trial_type":"html-keyboard-response","trial_index":115,"plugin_version":"2.1.0","time_elapsed":397943,"subject_id":"90094","group":"Group2","full_date":"2025-12-05T18:54:43.939Z","date":"2025-12-05","time":"18:54:43"},{"task":"memory_phase","broad_category":"I","image_png":"I_Pumice_01.png","image_id":129,"category_name":"Pumice","category":9,"distinct_rating":3.25,"distinct_type":"Bottom","rt":null,"stimulus":"Stimuli_Rocks480/I_Pumice_01.png","response":null,"trial_type":"image-keyboard-response","trial_index":116,"plugin_version":"2.1.0","time_elapsed":400446,"subject_id":"90094","group":"Group2","full_date":"2025-12-05T18:54:43.939Z","date":"2025-12-05","time":"18:54:43"},{"rt":null,"stimulus":"<p style=\"font-size: 50px; margin: 0; text-align: center;\">+</p>","response":null,"trial_type":"html-keyboard-response","trial_index":117,"plugin_version":"2.1.0","time_elapsed":401449,"subject_id":"90094","group":"Group2","full_date":"2025-12-05T18:54:43.939Z","date":"2025-12-05","time":"18:54:43"},{"task":"memory_phase","broad_category":"M","image_png":"M_Slate_10.png","image_id":314,"category_name":"Slate","category":20,"distinct_rating":1.94,"distinct_type":"Bottom","rt":null,"stimulus":"Stimuli_Rocks480/M_Slate_10.png","response":null,"trial_type":"image-keyboard-response","trial_index":118,"plugin_version":"2.1.0","time_elapsed":403952,"subject_id":"90094","group":"Group2","full_date":"2025-12-05T18:54:43.939Z","date":"2025-12-05","time":"18:54:43"},{"rt":null,"stimulus":"<p style=\"font-size: 50px; margin: 0; text-align: center;\">+</p>","response":null,"trial_type":"html-keyboard-response","trial_index":119,"plugin_version":"2.1.0","time_elapsed":404955,"subject_id":"90094","group":"Group2","full_date":"2025-12-05T18:54:43.939Z","date":"2025-12-05","time":"18:54:43"},{"task":"memory_phase","broad_category":"M","image_png":"M_Phyllite_13.png","image_id":269,"category_name":"Phyllite","category":17,"distinct_rating":2.8,"distinct_type":"Bottom","rt":null,"stimulus":"Stimuli_Rocks480/M_Phyllite_13.png","response":null,"trial_type":"image-keyboard-response","trial_index":120,"plugin_version":"2.1.0","time_elapsed":407459,"subject_id":"90094","group":"Group2","full_date":"2025-12-05T18:54:43.939Z","date":"2025-12-05","time":"18:54:43"},{"rt":null,"stimulus":"<p style=\"font-size: 50px; margin: 0; text-align: center;\">+</p>","response":null,"trial_type":"html-keyboard-response","trial_index":121,"plugin_version":"2.1.0","time_elapsed":408462,"subject_id":"90094","group":"Group2","full_date":"2025-12-05T18:54:43.939Z","date":"2025-12-05","time":"18:54:43"},{"task":"memory_phase","broad_category":"I","image_png":"I_Gabbro_14.png","image_id":62,"category_name":"Gabbro","category":4,"distinct_rating":2.95,"distinct_type":"Bottom","rt":null,"stimulus":"Stimuli_Rocks480/I_Gabbro_14.png","response":null,"trial_type":"image-keyboard-response","trial_index":122,"plugin_version":"2.1.0","time_elapsed":410966,"subject_id":"90094","group":"Group2","full_date":"2025-12-05T18:54:43.939Z","date":"2025-12-05","time":"18:54:43"},{"rt":null,"stimulus":"<p style=\"font-size: 50px; margin: 0; text-align: center;\">+</p>","response":null,"trial_type":"html-keyboard-response","trial_index":123,"plugin_version":"2.1.0","time_elapsed":411968,"subject_id":"90094","group":"Group2","full_date":"2025-12-05T18:54:43.939Z","date":"2025-12-05","time":"18:54:43"},{"task":"memory_phase","broad_category":"M","image_png":"M_Phyllite_05.png","image_id":261,"category_name":"Phyllite","category":17,"distinct_rating":2.14,"distinct_type":"Bottom","rt":null,"stimulus":"Stimuli_Rocks480/M_Phyllite_05.png","response":null,"trial_type":"image-keyboard-response","trial_index":124,"plugin_version":"2.1.0","time_elapsed":414471,"subject_id":"90094","group":"Group2","full_date":"2025-12-05T18:54:43.939Z","date":"2025-12-05","time":"18:54:43"},{"rt":null,"stimulus":"<p style=\"font-size: 50px; margin: 0; text-align: center;\">+</p>","response":null,"trial_type":"html-keyboard-response","trial_index":125,"plugin_version":"2.1.0","time_elapsed":415474,"subject_id":"90094","group":"Group2","full_date":"2025-12-05T18:54:43.939Z","date":"2025-12-05","time":"18:54:43"},{"task":"memory_phase","broad_category":"S","image_png":"S_Sandstone_11.png","image_id":459,"category_name":"Sandstone","category":29,"distinct_rating":1.82,"distinct_type":"Bottom","rt":null,"stimulus":"Stimuli_Rocks480/S_Sandstone_11.png","response":null,"trial_type":"image-keyboard-response","trial_index":126,"plugin_version":"2.1.0","time_elapsed":417977,"subject_id":"90094","group":"Group2","full_date":"2025-12-05T18:54:43.939Z","date":"2025-12-05","time":"18:54:43"},{"rt":null,"stimulus":"<p style=\"font-size: 50px; margin: 0; text-align: center;\">+</p>","response":null,"trial_type":"html-keyboard-response","trial_index":127,"plugin_version":"2.1.0","time_elapsed":418979,"subject_id":"90094","group":"Group2","full_date":"2025-12-05T18:54:43.939Z","date":"2025-12-05","time":"18:54:43"},{"task":"memory_phase","broad_category":"S","image_png":"S_Chert_13.png","image_id":365,"category_name":"Chert","category":23,"distinct_rating":6.57,"distinct_type":"Top","rt":null,"stimulus":"Stimuli_Rocks480/S_Chert_13.png","response":null,"trial_type":"image-keyboard-response","trial_index":128,"plugin_version":"2.1.0","time_elapsed":421482,"subject_id":"90094","group":"Group2","full_date":"2025-12-05T18:54:43.939Z","date":"2025-12-05","time":"18:54:43"},{"rt":null,"stimulus":"<p style=\"font-size: 50px; margin: 0; text-align: center;\">+</p>","response":null,"trial_type":"html-keyboard-response","trial_index":129,"plugin_version":"2.1.0","time_elapsed":422486,"subject_id":"90094","group":"Group2","full_date":"2025-12-05T18:54:43.939Z","date":"2025-12-05","time":"18:54:43"},{"task":"memory_phase","broad_category":"M","image_png":"M_Gneiss_10.png","image_id":202,"category_name":"Gneiss","category":13,"distinct_rating":3.09,"distinct_type":"Bottom","rt":null,"stimulus":"Stimuli_Rocks480/M_Gneiss_10.png","response":null,"trial_type":"image-keyboard-response","trial_index":130,"plugin_version":"2.1.0","time_elapsed":424989,"subject_id":"90094","group":"Group2","full_date":"2025-12-05T18:54:43.939Z","date":"2025-12-05","time":"18:54:43"},{"rt":null,"stimulus":"<p style=\"font-size: 50px; margin: 0; text-align: center;\">+</p>","response":null,"trial_type":"html-keyboard-response","trial_index":131,"plugin_version":"2.1.0","time_elapsed":425992,"subject_id":"90094","group":"Group2","full_date":"2025-12-05T18:54:43.939Z","date":"2025-12-05","time":"18:54:43"},{"task":"memory_phase","broad_category":"M","image_png":"M_Marble_02.png","image_id":226,"category_name":"Marble","category":15,"distinct_rating":3.2,"distinct_type":"Bottom","rt":null,"stimulus":"Stimuli_Rocks480/M_Marble_02.png","response":null,"trial_type":"image-keyboard-response","trial_index":132,"plugin_version":"2.1.0","time_elapsed":428495,"subject_id":"90094","group":"Group2","full_date":"2025-12-05T18:54:43.939Z","date":"2025-12-05","time":"18:54:43"},{"rt":null,"stimulus":"<p style=\"font-size: 50px; margin: 0; text-align: center;\">+</p>","response":null,"trial_type":"html-keyboard-response","trial_index":133,"plugin_version":"2.1.0","time_elapsed":429497,"subject_id":"90094","group":"Group2","full_date":"2025-12-05T18:54:43.939Z","date":"2025-12-05","time":"18:54:43"},{"task":"memory_phase","broad_category":"I","image_png":"I_Obsidian_06.png","image_id":86,"category_name":"Obsidian","category":6,"distinct_rating":8.01,"distinct_type":"Top","rt":null,"stimulus":"Stimuli_Rocks480/I_Obsidian_06.png","response":null,"trial_type":"image-keyboard-response","trial_index":134,"plugin_version":"2.1.0","time_elapsed":432000,"subject_id":"90094","group":"Group2","full_date":"2025-12-05T18:54:43.939Z","date":"2025-12-05","time":"18:54:43"},{"rt":null,"stimulus":"<p style=\"font-size: 50px; margin: 0; text-align: center;\">+</p>","response":null,"trial_type":"html-keyboard-response","trial_index":135,"plugin_version":"2.1.0","time_elapsed":433003,"subject_id":"90094","group":"Group2","full_date":"2025-12-05T18:54:43.939Z","date":"2025-12-05","time":"18:54:43"},{"task":"memory_phase","broad_category":"M","image_png":"M_Phyllite_02.png","image_id":258,"category_name":"Phyllite","category":17,"distinct_rating":2.89,"distinct_type":"Bottom","rt":null,"stimulus":"Stimuli_Rocks480/M_Phyllite_02.png","response":null,"trial_type":"image-keyboard-response","trial_index":136,"plugin_version":"2.1.0","time_elapsed":435507,"subject_id":"90094","group":"Group2","full_date":"2025-12-05T18:54:43.939Z","date":"2025-12-05","time":"18:54:43"},{"rt":null,"stimulus":"<p style=\"font-size: 50px; margin: 0; text-align: center;\">+</p>","response":null,"trial_type":"html-keyboard-response","trial_index":137,"plugin_version":"2.1.0","time_elapsed":436509,"subject_id":"90094","group":"Group2","full_date":"2025-12-05T18:54:43.939Z","date":"2025-12-05","time":"18:54:43"},{"task":"memory_phase","broad_category":"I","image_png":"I_Peridotite_13.png","image_id":125,"category_name":"Peridotite","category":8,"distinct_rating":7.28,"distinct_type":"Top","rt":null,"stimulus":"Stimuli_Rocks480/I_Peridotite_13.png","response":null,"trial_type":"image-keyboard-response","trial_index":138,"plugin_version":"2.1.0","time_elapsed":439013,"subject_id":"90094","group":"Group2","full_date":"2025-12-05T18:54:43.939Z","date":"2025-12-05","time":"18:54:43"},{"rt":null,"stimulus":"<p style=\"font-size: 50px; margin: 0; text-align: center;\">+</p>","response":null,"trial_type":"html-keyboard-response","trial_index":139,"plugin_version":"2.1.0","time_elapsed":440017,"subject_id":"90094","group":"Group2","full_date":"2025-12-05T18:54:43.939Z","date":"2025-12-05","time":"18:54:43"},{"task":"memory_phase","broad_category":"M","image_png":"M_Marble_03.png","image_id":227,"category_name":"Marble","category":15,"distinct_rating":2.67,"distinct_type":"Bottom","rt":null,"stimulus":"Stimuli_Rocks480/M_Marble_03.png","response":null,"trial_type":"image-keyboard-response","trial_index":140,"plugin_version":"2.1.0","time_elapsed":442520,"subject_id":"90094","group":"Group2","full_date":"2025-12-05T18:54:43.939Z","date":"2025-12-05","time":"18:54:43"},{"rt":null,"stimulus":"<p style=\"font-size: 50px; margin: 0; text-align: center;\">+</p>","response":null,"trial_type":"html-keyboard-response","trial_index":141,"plugin_version":"2.1.0","time_elapsed":443523,"subject_id":"90094","group":"Group2","full_date":"2025-12-05T18:54:43.939Z","date":"2025-12-05","time":"18:54:43"},{"task":"memory_phase","broad_category":"M","image_png":"M_Gneiss_15.png","image_id":207,"category_name":"Gneiss","category":13,"distinct_rating":3.11,"distinct_type":"Bottom","rt":null,"stimulus":"Stimuli_Rocks480/M_Gneiss_15.png","response":null,"trial_type":"image-keyboard-response","trial_index":142,"plugin_version":"2.1.0","time_elapsed":446026,"subject_id":"90094","group":"Group2","full_date":"2025-12-05T18:54:43.939Z","date":"2025-12-05","time":"18:54:43"},{"rt":null,"stimulus":"<p style=\"font-size: 50px; margin: 0; text-align: center;\">+</p>","response":null,"trial_type":"html-keyboard-response","trial_index":143,"plugin_version":"2.1.0","time_elapsed":447029,"subject_id":"90094","group":"Group2","full_date":"2025-12-05T18:54:43.939Z","date":"2025-12-05","time":"18:54:43"},{"task":"memory_phase","broad_category":"S","image_png":"S_Shale_03.png","image_id":467,"category_name":"Shale","category":30,"distinct_rating":1.95,"distinct_type":"Bottom","rt":null,"stimulus":"Stimuli_Rocks480/S_Shale_03.png","response":null,"trial_type":"image-keyboard-response","trial_index":144,"plugin_version":"2.1.0","time_elapsed":449532,"subject_id":"90094","group":"Group2","full_date":"2025-12-05T18:54:43.939Z","date":"2025-12-05","time":"18:54:43"},{"rt":null,"stimulus":"<p style=\"font-size: 50px; margin: 0; text-align: center;\">+</p>","response":null,"trial_type":"html-keyboard-response","trial_index":145,"plugin_version":"2.1.0","time_elapsed":450535,"subject_id":"90094","group":"Group2","full_date":"2025-12-05T18:54:43.939Z","date":"2025-12-05","time":"18:54:43"},{"task":"memory_phase","broad_category":"I","image_png":"I_Rhyolite_08.png","image_id":152,"category_name":"Rhyolite","category":10,"distinct_rating":1.38,"distinct_type":"Bottom","rt":null,"stimulus":"Stimuli_Rocks480/I_Rhyolite_08.png","response":null,"trial_type":"image-keyboard-response","trial_index":146,"plugin_version":"2.1.0","time_elapsed":453038,"subject_id":"90094","group":"Group2","full_date":"2025-12-05T18:54:43.939Z","date":"2025-12-05","time":"18:54:43"},{"rt":null,"stimulus":"<p style=\"font-size: 50px; margin: 0; text-align: center;\">+</p>","response":null,"trial_type":"html-keyboard-response","trial_index":147,"plugin_version":"2.1.0","time_elapsed":454042,"subject_id":"90094","group":"Group2","full_date":"2025-12-05T18:54:43.939Z","date":"2025-12-05","time":"18:54:43"},{"task":"memory_phase","broad_category":"I","image_png":"I_Rhyolite_10.png","image_id":154,"category_name":"Rhyolite","category":10,"distinct_rating":2.88,"distinct_type":"Bottom","rt":null,"stimulus":"Stimuli_Rocks480/I_Rhyolite_10.png","response":null,"trial_type":"image-keyboard-response","trial_index":148,"plugin_version":"2.1.0","time_elapsed":456544,"subject_id":"90094","group":"Group2","full_date":"2025-12-05T18:54:43.939Z","date":"2025-12-05","time":"18:54:43"},{"rt":null,"stimulus":"<p style=\"font-size: 50px; margin: 0; text-align: center;\">+</p>","response":null,"trial_type":"html-keyboard-response","trial_index":149,"plugin_version":"2.1.0","time_elapsed":457547,"subject_id":"90094","group":"Group2","full_date":"2025-12-05T18:54:43.939Z","date":"2025-12-05","time":"18:54:43"},{"task":"memory_phase","broad_category":"I","image_png":"I_Pumice_13.png","image_id":141,"category_name":"Pumice","category":9,"distinct_rating":3.12,"distinct_type":"Bottom","rt":null,"stimulus":"Stimuli_Rocks480/I_Pumice_13.png","response":null,"trial_type":"image-keyboard-response","trial_index":150,"plugin_version":"2.1.0","time_elapsed":460051,"subject_id":"90094","group":"Group2","full_date":"2025-12-05T18:54:43.939Z","date":"2025-12-05","time":"18:54:43"},{"rt":null,"stimulus":"<p style=\"font-size: 50px; margin: 0; text-align: center;\">+</p>","response":null,"trial_type":"html-keyboard-response","trial_index":151,"plugin_version":"2.1.0","time_elapsed":461054,"subject_id":"90094","group":"Group2","full_date":"2025-12-05T18:54:43.939Z","date":"2025-12-05","time":"18:54:43"},{"task":"memory_phase","broad_category":"S","image_png":"S_Rock Salt_13.png","image_id":445,"category_name":"Rock Salt","category":28,"distinct_rating":7.58,"distinct_type":"Top","rt":null,"stimulus":"Stimuli_Rocks480/S_Rock Salt_13.png","response":null,"trial_type":"image-keyboard-response","trial_index":152,"plugin_version":"2.1.0","time_elapsed":463557,"subject_id":"90094","group":"Group2","full_date":"2025-12-05T18:54:43.939Z","date":"2025-12-05","time":"18:54:43"},{"rt":null,"stimulus":"<p style=\"font-size: 50px; margin: 0; text-align: center;\">+</p>","response":null,"trial_type":"html-keyboard-response","trial_index":153,"plugin_version":"2.1.0","time_elapsed":464559,"subject_id":"90094","group":"Group2","full_date":"2025-12-05T18:54:43.939Z","date":"2025-12-05","time":"18:54:43"},{"task":"memory_phase","broad_category":"S","image_png":"S_Sandstone_08.png","image_id":456,"category_name":"Sandstone","category":29,"distinct_rating":1.5,"distinct_type":"Bottom","rt":null,"stimulus":"Stimuli_Rocks480/S_Sandstone_08.png","response":null,"trial_type":"image-keyboard-response","trial_index":154,"plugin_version":"2.1.0","time_elapsed":467063,"subject_id":"90094","group":"Group2","full_date":"2025-12-05T18:54:43.939Z","date":"2025-12-05","time":"18:54:43"},{"rt":null,"stimulus":"<p style=\"font-size: 50px; margin: 0; text-align: center;\">+</p>","response":null,"trial_type":"html-keyboard-response","trial_index":155,"plugin_version":"2.1.0","time_elapsed":468066,"subject_id":"90094","group":"Group2","full_date":"2025-12-05T18:54:43.939Z","date":"2025-12-05","time":"18:54:43"},{"task":"memory_phase","broad_category":"M","image_png":"M_Quartzite_07.png","image_id":279,"category_name":"Quartzite","category":18,"distinct_rating":1.97,"distinct_type":"Bottom","rt":null,"stimulus":"Stimuli_Rocks480/M_Quartzite_07.png","response":null,"trial_type":"image-keyboard-response","trial_index":156,"plugin_version":"2.1.0","time_elapsed":470569,"subject_id":"90094","group":"Group2","full_date":"2025-12-05T18:54:43.939Z","date":"2025-12-05","time":"18:54:43"},{"rt":8297,"stimulus":"<p style=\"max-width: 760px; margin: auto; font-size: 35px; line-height: 1.5;\">Press SPACE to continue study phase</p>","response":" ","trial_type":"html-keyboard-response","trial_index":157,"plugin_version":"2.1.0","time_elapsed":478867,"subject_id":"90094","group":"Group2","full_date":"2025-12-05T18:54:43.939Z","date":"2025-12-05","time":"18:54:43"},{"rt":null,"stimulus":"<p style=\"font-size: 50px; margin: 0; text-align: center;\">+</p>","response":null,"trial_type":"html-keyboard-response","trial_index":158,"plugin_version":"2.1.0","time_elapsed":479868,"subject_id":"90094","group":"Group2","full_date":"2025-12-05T18:54:43.939Z","date":"2025-12-05","time":"18:54:43"},{"task":"memory_phase","broad_category":"I","image_png":"I_Diorite_01.png","image_id":33,"category_name":"Diorite","category":3,"distinct_rating":2.97,"distinct_type":"Bottom","rt":null,"stimulus":"Stimuli_Rocks480/I_Diorite_01.png","response":null,"trial_type":"image-keyboard-response","trial_index":159,"plugin_version":"2.1.0","time_elapsed":482372,"subject_id":"90094","group":"Group2","full_date":"2025-12-05T18:54:43.939Z","date":"2025-12-05","time":"18:54:43"},{"rt":null,"stimulus":"<p style=\"font-size: 50px; margin: 0; text-align: center;\">+</p>","response":null,"trial_type":"html-keyboard-response","trial_index":160,"plugin_version":"2.1.0","time_elapsed":483375,"subject_id":"90094","group":"Group2","full_date":"2025-12-05T18:54:43.939Z","date":"2025-12-05","time":"18:54:43"},{"task":"memory_phase","broad_category":"I","image_png":"I_Pegmatite_03.png","image_id":99,"category_name":"Pegmatite","category":7,"distinct_rating":7.24,"distinct_type":"Top","rt":null,"stimulus":"Stimuli_Rocks480/I_Pegmatite_03.png","response":null,"trial_type":"image-keyboard-response","trial_index":161,"plugin_version":"2.1.0","time_elapsed":485878,"subject_id":"90094","group":"Group2","full_date":"2025-12-05T18:54:43.939Z","date":"2025-12-05","time":"18:54:43"},{"rt":null,"stimulus":"<p style=\"font-size: 50px; margin: 0; text-align: center;\">+</p>","response":null,"trial_type":"html-keyboard-response","trial_index":162,"plugin_version":"2.1.0","time_elapsed":486881,"subject_id":"90094","group":"Group2","full_date":"2025-12-05T18:54:43.939Z","date":"2025-12-05","time":"18:54:43"},{"task":"memory_phase","broad_category":"S","image_png":"S_Conglomerate_14.png","image_id":382,"category_name":"Conglomerate","category":24,"distinct_rating":6.86,"distinct_type":"Top","rt":null,"stimulus":"Stimuli_Rocks480/S_Conglomerate_14.png","response":null,"trial_type":"image-keyboard-response","trial_index":163,"plugin_version":"2.1.0","time_elapsed":489384,"subject_id":"90094","group":"Group2","full_date":"2025-12-05T18:54:43.939Z","date":"2025-12-05","time":"18:54:43"},{"rt":null,"stimulus":"<p style=\"font-size: 50px; margin: 0; text-align: center;\">+</p>","response":null,"trial_type":"html-keyboard-response","trial_index":164,"plugin_version":"2.1.0","time_elapsed":490386,"subject_id":"90094","group":"Group2","full_date":"2025-12-05T18:54:43.939Z","date":"2025-12-05","time":"18:54:43"},{"task":"memory_phase","broad_category":"I","image_png":"I_Andesite_04.png","image_id":4,"category_name":"Andesite","category":1,"distinct_rating":3.18,"distinct_type":"Bottom","rt":null,"stimulus":"Stimuli_Rocks480/I_Andesite_04.png","response":null,"trial_type":"image-keyboard-response","trial_index":165,"plugin_version":"2.1.0","time_elapsed":492890,"subject_id":"90094","group":"Group2","full_date":"2025-12-05T18:54:43.939Z","date":"2025-12-05","time":"18:54:43"},{"rt":null,"stimulus":"<p style=\"font-size: 50px; margin: 0; text-align: center;\">+</p>","response":null,"trial_type":"html-keyboard-response","trial_index":166,"plugin_version":"2.1.0","time_elapsed":493893,"subject_id":"90094","group":"Group2","full_date":"2025-12-05T18:54:43.939Z","date":"2025-12-05","time":"18:54:43"},{"task":"memory_phase","broad_category":"S","image_png":"S_Shale_07.png","image_id":471,"category_name":"Shale","category":30,"distinct_rating":2.73,"distinct_type":"Bottom","rt":null,"stimulus":"Stimuli_Rocks480/S_Shale_07.png","response":null,"trial_type":"image-keyboard-response","trial_index":167,"plugin_version":"2.1.0","time_elapsed":496396,"subject_id":"90094","group":"Group2","full_date":"2025-12-05T18:54:43.939Z","date":"2025-12-05","time":"18:54:43"},{"rt":null,"stimulus":"<p style=\"font-size: 50px; margin: 0; text-align: center;\">+</p>","response":null,"trial_type":"html-keyboard-response","trial_index":168,"plugin_version":"2.1.0","time_elapsed":497398,"subject_id":"90094","group":"Group2","full_date":"2025-12-05T18:54:43.939Z","date":"2025-12-05","time":"18:54:43"},{"task":"memory_phase","broad_category":"S","image_png":"S_Dolomite_01.png","image_id":385,"category_name":"Dolomite","category":25,"distinct_rating":1.43,"distinct_type":"Bottom","rt":null,"stimulus":"Stimuli_Rocks480/S_Dolomite_01.png","response":null,"trial_type":"image-keyboard-response","trial_index":169,"plugin_version":"2.1.0","time_elapsed":499901,"subject_id":"90094","group":"Group2","full_date":"2025-12-05T18:54:43.939Z","date":"2025-12-05","time":"18:54:43"},{"rt":null,"stimulus":"<p style=\"font-size: 50px; margin: 0; text-align: center;\">+</p>","response":null,"trial_type":"html-keyboard-response","trial_index":170,"plugin_version":"2.1.0","time_elapsed":500905,"subject_id":"90094","group":"Group2","full_date":"2025-12-05T18:54:43.939Z","date":"2025-12-05","time":"18:54:43"},{"task":"memory_phase","broad_category":"I","image_png":"I_Basalt_10.png","image_id":26,"category_name":"Basalt","category":2,"distinct_rating":2.76,"distinct_type":"Bottom","rt":null,"stimulus":"Stimuli_Rocks480/I_Basalt_10.png","response":null,"trial_type":"image-keyboard-response","trial_index":171,"plugin_version":"2.1.0","time_elapsed":503408,"subject_id":"90094","group":"Group2","full_date":"2025-12-05T18:54:43.939Z","date":"2025-12-05","time":"18:54:43"},{"rt":null,"stimulus":"<p style=\"font-size: 50px; margin: 0; text-align: center;\">+</p>","response":null,"trial_type":"html-keyboard-response","trial_index":172,"plugin_version":"2.1.0","time_elapsed":504411,"subject_id":"90094","group":"Group2","full_date":"2025-12-05T18:54:43.939Z","date":"2025-12-05","time":"18:54:43"},{"task":"memory_phase","broad_category":"S","image_png":"S_Rock Salt_15.png","image_id":447,"category_name":"Rock Salt","category":28,"distinct_rating":7.79,"distinct_type":"Top","rt":null,"stimulus":"Stimuli_Rocks480/S_Rock Salt_15.png","response":null,"trial_type":"image-keyboard-response","trial_index":173,"plugin_version":"2.1.0","time_elapsed":506915,"subject_id":"90094","group":"Group2","full_date":"2025-12-05T18:54:43.939Z","date":"2025-12-05","time":"18:54:43"},{"rt":null,"stimulus":"<p style=\"font-size: 50px; margin: 0; text-align: center;\">+</p>","response":null,"trial_type":"html-keyboard-response","trial_index":174,"plugin_version":"2.1.0","time_elapsed":507917,"subject_id":"90094","group":"Group2","full_date":"2025-12-05T18:54:43.939Z","date":"2025-12-05","time":"18:54:43"},{"task":"memory_phase","broad_category":"S","image_png":"S_Dolomite_07.png","image_id":391,"category_name":"Dolomite","category":25,"distinct_rating":1.73,"distinct_type":"Bottom","rt":null,"stimulus":"Stimuli_Rocks480/S_Dolomite_07.png","response":null,"trial_type":"image-keyboard-response","trial_index":175,"plugin_version":"2.1.0","time_elapsed":510420,"subject_id":"90094","group":"Group2","full_date":"2025-12-05T18:54:43.939Z","date":"2025-12-05","time":"18:54:43"},{"rt":null,"stimulus":"<p style=\"font-size: 50px; margin: 0; text-align: center;\">+</p>","response":null,"trial_type":"html-keyboard-response","trial_index":176,"plugin_version":"2.1.0","time_elapsed":511423,"subject_id":"90094","group":"Group2","full_date":"2025-12-05T18:54:43.939Z","date":"2025-12-05","time":"18:54:43"},{"task":"memory_phase","broad_category":"I","image_png":"I_Pumice_14.png","image_id":142,"category_name":"Pumice","category":9,"distinct_rating":3.22,"distinct_type":"Bottom","rt":null,"stimulus":"Stimuli_Rocks480/I_Pumice_14.png","response":null,"trial_type":"image-keyboard-response","trial_index":177,"plugin_version":"2.1.0","time_elapsed":513926,"subject_id":"90094","group":"Group2","full_date":"2025-12-05T18:54:43.939Z","date":"2025-12-05","time":"18:54:43"},{"rt":null,"stimulus":"<p style=\"font-size: 50px; margin: 0; text-align: center;\">+</p>","response":null,"trial_type":"html-keyboard-response","trial_index":178,"plugin_version":"2.1.0","time_elapsed":514928,"subject_id":"90094","group":"Group2","full_date":"2025-12-05T18:54:43.939Z","date":"2025-12-05","time":"18:54:43"},{"task":"memory_phase","broad_category":"I","image_png":"I_Diorite_15.png","image_id":47,"category_name":"Diorite","category":3,"distinct_rating":3.05,"distinct_type":"Bottom","rt":null,"stimulus":"Stimuli_Rocks480/I_Diorite_15.png","response":null,"trial_type":"image-keyboard-response","trial_index":179,"plugin_version":"2.1.0","time_elapsed":517431,"subject_id":"90094","group":"Group2","full_date":"2025-12-05T18:54:43.939Z","date":"2025-12-05","time":"18:54:43"},{"rt":null,"stimulus":"<p style=\"font-size: 50px; margin: 0; text-align: center;\">+</p>","response":null,"trial_type":"html-keyboard-response","trial_index":180,"plugin_version":"2.1.0","time_elapsed":518434,"subject_id":"90094","group":"Group2","full_date":"2025-12-05T18:54:43.939Z","date":"2025-12-05","time":"18:54:43"},{"task":"memory_phase","broad_category":"I","image_png":"I_Pegmatite_11.png","image_id":107,"category_name":"Pegmatite","category":7,"distinct_rating":7.11,"distinct_type":"Top","rt":null,"stimulus":"Stimuli_Rocks480/I_Pegmatite_11.png","response":null,"trial_type":"image-keyboard-response","trial_index":181,"plugin_version":"2.1.0","time_elapsed":520937,"subject_id":"90094","group":"Group2","full_date":"2025-12-05T18:54:43.939Z","date":"2025-12-05","time":"18:54:43"},{"rt":null,"stimulus":"<p style=\"font-size: 50px; margin: 0; text-align: center;\">+</p>","response":null,"trial_type":"html-keyboard-response","trial_index":182,"plugin_version":"2.1.0","time_elapsed":521940,"subject_id":"90094","group":"Group2","full_date":"2025-12-05T18:54:43.939Z","date":"2025-12-05","time":"18:54:43"},{"task":"memory_phase","broad_category":"S","image_png":"S_Dolomite_16.png","image_id":400,"category_name":"Dolomite","category":25,"distinct_rating":1.71,"distinct_type":"Bottom","rt":null,"stimulus":"Stimuli_Rocks480/S_Dolomite_16.png","response":null,"trial_type":"image-keyboard-response","trial_index":183,"plugin_version":"2.1.0","time_elapsed":524444,"subject_id":"90094","group":"Group2","full_date":"2025-12-05T18:54:43.939Z","date":"2025-12-05","time":"18:54:43"},{"rt":null,"stimulus":"<p style=\"font-size: 50px; margin: 0; text-align: center;\">+</p>","response":null,"trial_type":"html-keyboard-response","trial_index":184,"plugin_version":"2.1.0","time_elapsed":525446,"subject_id":"90094","group":"Group2","full_date":"2025-12-05T18:54:43.939Z","date":"2025-12-05","time":"18:54:43"},{"task":"memory_phase","broad_category":"I","image_png":"I_Rhyolite_05.png","image_id":149,"category_name":"Rhyolite","category":10,"distinct_rating":3.02,"distinct_type":"Bottom","rt":null,"stimulus":"Stimuli_Rocks480/I_Rhyolite_05.png","response":null,"trial_type":"image-keyboard-response","trial_index":185,"plugin_version":"2.1.0","time_elapsed":527950,"subject_id":"90094","group":"Group2","full_date":"2025-12-05T18:54:43.939Z","date":"2025-12-05","time":"18:54:43"},{"rt":null,"stimulus":"<p style=\"font-size: 50px; margin: 0; text-align: center;\">+</p>","response":null,"trial_type":"html-keyboard-response","trial_index":186,"plugin_version":"2.1.0","time_elapsed":528952,"subject_id":"90094","group":"Group2","full_date":"2025-12-05T18:54:43.939Z","date":"2025-12-05","time":"18:54:43"},{"task":"memory_phase","broad_category":"S","image_png":"S_Shale_02.png","image_id":466,"category_name":"Shale","category":30,"distinct_rating":2.9,"distinct_type":"Bottom","rt":null,"stimulus":"Stimuli_Rocks480/S_Shale_02.png","response":null,"trial_type":"image-keyboard-response","trial_index":187,"plugin_version":"2.1.0","time_elapsed":531456,"subject_id":"90094","group":"Group2","full_date":"2025-12-05T18:54:43.939Z","date":"2025-12-05","time":"18:54:43"},{"rt":null,"stimulus":"<p style=\"font-size: 50px; margin: 0; text-align: center;\">+</p>","response":null,"trial_type":"html-keyboard-response","trial_index":188,"plugin_version":"2.1.0","time_elapsed":532458,"subject_id":"90094","group":"Group2","full_date":"2025-12-05T18:54:43.939Z","date":"2025-12-05","time":"18:54:43"},{"task":"memory_phase","broad_category":"S","image_png":"S_Sandstone_04.png","image_id":452,"category_name":"Sandstone","category":29,"distinct_rating":1.8,"distinct_type":"Bottom","rt":null,"stimulus":"Stimuli_Rocks480/S_Sandstone_04.png","response":null,"trial_type":"image-keyboard-response","trial_index":189,"plugin_version":"2.1.0","time_elapsed":534962,"subject_id":"90094","group":"Group2","full_date":"2025-12-05T18:54:43.939Z","date":"2025-12-05","time":"18:54:43"},{"rt":null,"stimulus":"<p style=\"font-size: 50px; margin: 0; text-align: center;\">+</p>","response":null,"trial_type":"html-keyboard-response","trial_index":190,"plugin_version":"2.1.0","time_elapsed":535964,"subject_id":"90094","group":"Group2","full_date":"2025-12-05T18:54:43.939Z","date":"2025-12-05","time":"18:54:43"},{"task":"memory_phase","broad_category":"I","image_png":"I_Diorite_10.png","image_id":42,"category_name":"Diorite","category":3,"distinct_rating":2.84,"distinct_type":"Bottom","rt":null,"stimulus":"Stimuli_Rocks480/I_Diorite_10.png","response":null,"trial_type":"image-keyboard-response","trial_index":191,"plugin_version":"2.1.0","time_elapsed":538468,"subject_id":"90094","group":"Group2","full_date":"2025-12-05T18:54:43.939Z","date":"2025-12-05","time":"18:54:43"},{"rt":null,"stimulus":"<p style=\"font-size: 50px; margin: 0; text-align: center;\">+</p>","response":null,"trial_type":"html-keyboard-response","trial_index":192,"plugin_version":"2.1.0","time_elapsed":539470,"subject_id":"90094","group":"Group2","full_date":"2025-12-05T18:54:43.939Z","date":"2025-12-05","time":"18:54:43"},{"task":"memory_phase","broad_category":"M","image_png":"M_Slate_04.png","image_id":308,"category_name":"Slate","category":20,"distinct_rating":2.2,"distinct_type":"Bottom","rt":null,"stimulus":"Stimuli_Rocks480/M_Slate_04.png","response":null,"trial_type":"image-keyboard-response","trial_index":193,"plugin_version":"2.1.0","time_elapsed":541973,"subject_id":"90094","group":"Group2","full_date":"2025-12-05T18:54:43.939Z","date":"2025-12-05","time":"18:54:43"},{"rt":null,"stimulus":"<p style=\"font-size: 50px; margin: 0; text-align: center;\">+</p>","response":null,"trial_type":"html-keyboard-response","trial_index":194,"plugin_version":"2.1.0","time_elapsed":542976,"subject_id":"90094","group":"Group2","full_date":"2025-12-05T18:54:43.939Z","date":"2025-12-05","time":"18:54:43"},{"task":"memory_phase","broad_category":"I","image_png":"I_Basalt_13.png","image_id":29,"category_name":"Basalt","category":2,"distinct_rating":2.68,"distinct_type":"Bottom","rt":null,"stimulus":"Stimuli_Rocks480/I_Basalt_13.png","response":null,"trial_type":"image-keyboard-response","trial_index":195,"plugin_version":"2.1.0","time_elapsed":545479,"subject_id":"90094","group":"Group2","full_date":"2025-12-05T18:54:43.939Z","date":"2025-12-05","time":"18:54:43"},{"rt":null,"stimulus":"<p style=\"font-size: 50px; margin: 0; text-align: center;\">+</p>","response":null,"trial_type":"html-keyboard-response","trial_index":196,"plugin_version":"2.1.0","time_elapsed":546482,"subject_id":"90094","group":"Group2","full_date":"2025-12-05T18:54:43.939Z","date":"2025-12-05","time":"18:54:43"},{"task":"memory_phase","broad_category":"I","image_png":"I_Gabbro_12.png","image_id":60,"category_name":"Gabbro","category":4,"distinct_rating":2.6,"distinct_type":"Bottom","rt":null,"stimulus":"Stimuli_Rocks480/I_Gabbro_12.png","response":null,"trial_type":"image-keyboard-response","trial_index":197,"plugin_version":"2.1.0","time_elapsed":548986,"subject_id":"90094","group":"Group2","full_date":"2025-12-05T18:54:43.939Z","date":"2025-12-05","time":"18:54:43"},{"rt":null,"stimulus":"<p style=\"font-size: 50px; margin: 0; text-align: center;\">+</p>","response":null,"trial_type":"html-keyboard-response","trial_index":198,"plugin_version":"2.1.0","time_elapsed":549988,"subject_id":"90094","group":"Group2","full_date":"2025-12-05T18:54:43.939Z","date":"2025-12-05","time":"18:54:43"},{"task":"memory_phase","broad_category":"M","image_png":"M_Marble_14.png","image_id":238,"category_name":"Marble","category":15,"distinct_rating":3.31,"distinct_type":"Bottom","rt":null,"stimulus":"Stimuli_Rocks480/M_Marble_14.png","response":null,"trial_type":"image-keyboard-response","trial_index":199,"plugin_version":"2.1.0","time_elapsed":552491,"subject_id":"90094","group":"Group2","full_date":"2025-12-05T18:54:43.939Z","date":"2025-12-05","time":"18:54:43"},{"rt":null,"stimulus":"<p style=\"font-size: 50px; margin: 0; text-align: center;\">+</p>","response":null,"trial_type":"html-keyboard-response","trial_index":200,"plugin_version":"2.1.0","time_elapsed":553494,"subject_id":"90094","group":"Group2","full_date":"2025-12-05T18:54:43.939Z","date":"2025-12-05","time":"18:54:43"},{"task":"memory_phase","broad_category":"M","image_png":"M_Quartzite_15.png","image_id":287,"category_name":"Quartzite","category":18,"distinct_rating":2.19,"distinct_type":"Bottom","rt":null,"stimulus":"Stimuli_Rocks480/M_Quartzite_15.png","response":null,"trial_type":"image-keyboard-response","trial_index":201,"plugin_version":"2.1.0","time_elapsed":555997,"subject_id":"90094","group":"Group2","full_date":"2025-12-05T18:54:43.939Z","date":"2025-12-05","time":"18:54:43"},{"rt":null,"stimulus":"<p style=\"font-size: 50px; margin: 0; text-align: center;\">+</p>","response":null,"trial_type":"html-keyboard-response","trial_index":202,"plugin_version":"2.1.0","time_elapsed":557000,"subject_id":"90094","group":"Group2","full_date":"2025-12-05T18:54:43.939Z","date":"2025-12-05","time":"18:54:43"},{"task":"memory_phase","broad_category":"I","image_png":"I_Gabbro_02.png","image_id":50,"category_name":"Gabbro","category":4,"distinct_rating":2.73,"distinct_type":"Bottom","rt":null,"stimulus":"Stimuli_Rocks480/I_Gabbro_02.png","response":null,"trial_type":"image-keyboard-response","trial_index":203,"plugin_version":"2.1.0","time_elapsed":559504,"subject_id":"90094","group":"Group2","full_date":"2025-12-05T18:54:43.939Z","date":"2025-12-05","time":"18:54:43"},{"rt":null,"stimulus":"<p style=\"font-size: 50px; margin: 0; text-align: center;\">+</p>","response":null,"trial_type":"html-keyboard-response","trial_index":204,"plugin_version":"2.1.0","time_elapsed":560506,"subject_id":"90094","group":"Group2","full_date":"2025-12-05T18:54:43.939Z","date":"2025-12-05","time":"18:54:43"},{"task":"memory_phase","broad_category":"M","image_png":"M_Gneiss_14.png","image_id":206,"category_name":"Gneiss","category":13,"distinct_rating":3.41,"distinct_type":"Bottom","rt":null,"stimulus":"Stimuli_Rocks480/M_Gneiss_14.png","response":null,"trial_type":"image-keyboard-response","trial_index":205,"plugin_version":"2.1.0","time_elapsed":563009,"subject_id":"90094","group":"Group2","full_date":"2025-12-05T18:54:43.939Z","date":"2025-12-05","time":"18:54:43"},{"rt":null,"stimulus":"<p style=\"font-size: 50px; margin: 0; text-align: center;\">+</p>","response":null,"trial_type":"html-keyboard-response","trial_index":206,"plugin_version":"2.1.0","time_elapsed":564011,"subject_id":"90094","group":"Group2","full_date":"2025-12-05T18:54:43.939Z","date":"2025-12-05","time":"18:54:43"},{"task":"memory_phase","broad_category":"I","image_png":"I_Andesite_03.png","image_id":3,"category_name":"Andesite","category":1,"distinct_rating":3.17,"distinct_type":"Bottom","rt":null,"stimulus":"Stimuli_Rocks480/I_Andesite_03.png","response":null,"trial_type":"image-keyboard-response","trial_index":207,"plugin_version":"2.1.0","time_elapsed":566515,"subject_id":"90094","group":"Group2","full_date":"2025-12-05T18:54:43.939Z","date":"2025-12-05","time":"18:54:43"},{"rt":1225,"stimulus":"<p style=\"max-width: 760px; margin: auto; font-size: 35px; line-height: 1.5;\">You have completed 2 study phases. Now, we'll show you all the images again 1 more time.<br><br>Press SPACE to continue</p>","response":" ","trial_type":"html-keyboard-response","trial_index":208,"plugin_version":"2.1.0","time_elapsed":567741,"subject_id":"90094","group":"Group2","full_date":"2025-12-05T18:54:43.939Z","date":"2025-12-05","time":"18:54:43"},{"rt":null,"stimulus":"<p style=\"font-size: 50px; margin: 0; text-align: center;\">+</p>","response":null,"trial_type":"html-keyboard-response","trial_index":209,"plugin_version":"2.1.0","time_elapsed":568744,"subject_id":"90094","group":"Group2","full_date":"2025-12-05T18:54:43.939Z","date":"2025-12-05","time":"18:54:43"},{"task":"memory_phase","broad_category":"M","image_png":"M_Marble_14.png","image_id":238,"category_name":"Marble","category":15,"distinct_rating":3.31,"distinct_type":"Bottom","rt":null,"stimulus":"Stimuli_Rocks480/M_Marble_14.png","response":null,"trial_type":"image-keyboard-response","trial_index":210,"plugin_version":"2.1.0","time_elapsed":571246,"subject_id":"90094","group":"Group2","full_date":"2025-12-05T18:54:43.939Z","date":"2025-12-05","time":"18:54:43"},{"rt":null,"stimulus":"<p style=\"font-size: 50px; margin: 0; text-align: center;\">+</p>","response":null,"trial_type":"html-keyboard-response","trial_index":211,"plugin_version":"2.1.0","time_elapsed":572249,"subject_id":"90094","group":"Group2","full_date":"2025-12-05T18:54:43.939Z","date":"2025-12-05","time":"18:54:43"},{"task":"memory_phase","broad_category":"M","image_png":"M_Slate_04.png","image_id":308,"category_name":"Slate","category":20,"distinct_rating":2.2,"distinct_type":"Bottom","rt":null,"stimulus":"Stimuli_Rocks480/M_Slate_04.png","response":null,"trial_type":"image-keyboard-response","trial_index":212,"plugin_version":"2.1.0","time_elapsed":574752,"subject_id":"90094","group":"Group2","full_date":"2025-12-05T18:54:43.939Z","date":"2025-12-05","time":"18:54:43"},{"rt":null,"stimulus":"<p style=\"font-size: 50px; margin: 0; text-align: center;\">+</p>","response":null,"trial_type":"html-keyboard-response","trial_index":213,"plugin_version":"2.1.0","time_elapsed":575753,"subject_id":"90094","group":"Group2","full_date":"2025-12-05T18:54:43.939Z","date":"2025-12-05","time":"18:54:43"},{"task":"memory_phase","broad_category":"I","image_png":"I_Obsidian_06.png","image_id":86,"category_name":"Obsidian","category":6,"distinct_rating":8.01,"distinct_type":"Top","rt":null,"stimulus":"Stimuli_Rocks480/I_Obsidian_06.png","response":null,"trial_type":"image-keyboard-response","trial_index":214,"plugin_version":"2.1.0","time_elapsed":578256,"subject_id":"90094","group":"Group2","full_date":"2025-12-05T18:54:43.939Z","date":"2025-12-05","time":"18:54:43"},{"rt":null,"stimulus":"<p style=\"font-size: 50px; margin: 0; text-align: center;\">+</p>","response":null,"trial_type":"html-keyboard-response","trial_index":215,"plugin_version":"2.1.0","time_elapsed":579259,"subject_id":"90094","group":"Group2","full_date":"2025-12-05T18:54:43.939Z","date":"2025-12-05","time":"18:54:43"},{"task":"memory_phase","broad_category":"I","image_png":"I_Andesite_09.png","image_id":9,"category_name":"Andesite","category":1,"distinct_rating":2.49,"distinct_type":"Bottom","rt":null,"stimulus":"Stimuli_Rocks480/I_Andesite_09.png","response":null,"trial_type":"image-keyboard-response","trial_index":216,"plugin_version":"2.1.0","time_elapsed":581763,"subject_id":"90094","group":"Group2","full_date":"2025-12-05T18:54:43.939Z","date":"2025-12-05","time":"18:54:43"},{"rt":null,"stimulus":"<p style=\"font-size: 50px; margin: 0; text-align: center;\">+</p>","response":null,"trial_type":"html-keyboard-response","trial_index":217,"plugin_version":"2.1.0","time_elapsed":582766,"subject_id":"90094","group":"Group2","full_date":"2025-12-05T18:54:43.939Z","date":"2025-12-05","time":"18:54:43"},{"task":"memory_phase","broad_category":"I","image_png":"I_Rhyolite_10.png","image_id":154,"category_name":"Rhyolite","category":10,"distinct_rating":2.88,"distinct_type":"Bottom","rt":null,"stimulus":"Stimuli_Rocks480/I_Rhyolite_10.png","response":null,"trial_type":"image-keyboard-response","trial_index":218,"plugin_version":"2.1.0","time_elapsed":585269,"subject_id":"90094","group":"Group2","full_date":"2025-12-05T18:54:43.939Z","date":"2025-12-05","time":"18:54:43"},{"rt":null,"stimulus":"<p style=\"font-size: 50px; margin: 0; text-align: center;\">+</p>","response":null,"trial_type":"html-keyboard-response","trial_index":219,"plugin_version":"2.1.0","time_elapsed":586272,"subject_id":"90094","group":"Group2","full_date":"2025-12-05T18:54:43.939Z","date":"2025-12-05","time":"18:54:43"},{"task":"memory_phase","broad_category":"S","image_png":"S_Dolomite_16.png","image_id":400,"category_name":"Dolomite","category":25,"distinct_rating":1.71,"distinct_type":"Bottom","rt":null,"stimulus":"Stimuli_Rocks480/S_Dolomite_16.png","response":null,"trial_type":"image-keyboard-response","trial_index":220,"plugin_version":"2.1.0","time_elapsed":588775,"subject_id":"90094","group":"Group2","full_date":"2025-12-05T18:54:43.939Z","date":"2025-12-05","time":"18:54:43"},{"rt":null,"stimulus":"<p style=\"font-size: 50px; margin: 0; text-align: center;\">+</p>","response":null,"trial_type":"html-keyboard-response","trial_index":221,"plugin_version":"2.1.0","time_elapsed":589777,"subject_id":"90094","group":"Group2","full_date":"2025-12-05T18:54:43.939Z","date":"2025-12-05","time":"18:54:43"},{"task":"memory_phase","broad_category":"M","image_png":"M_Slate_10.png","image_id":314,"category_name":"Slate","category":20,"distinct_rating":1.94,"distinct_type":"Bottom","rt":null,"stimulus":"Stimuli_Rocks480/M_Slate_10.png","response":null,"trial_type":"image-keyboard-response","trial_index":222,"plugin_version":"2.1.0","time_elapsed":592279,"subject_id":"90094","group":"Group2","full_date":"2025-12-05T18:54:43.939Z","date":"2025-12-05","time":"18:54:43"},{"rt":null,"stimulus":"<p style=\"font-size: 50px; margin: 0; text-align: center;\">+</p>","response":null,"trial_type":"html-keyboard-response","trial_index":223,"plugin_version":"2.1.0","time_elapsed":593282,"subject_id":"90094","group":"Group2","full_date":"2025-12-05T18:54:43.939Z","date":"2025-12-05","time":"18:54:43"},{"task":"memory_phase","broad_category":"S","image_png":"S_Sandstone_04.png","image_id":452,"category_name":"Sandstone","category":29,"distinct_rating":1.8,"distinct_type":"Bottom","rt":null,"stimulus":"Stimuli_Rocks480/S_Sandstone_04.png","response":null,"trial_type":"image-keyboard-response","trial_index":224,"plugin_version":"2.1.0","time_elapsed":595785,"subject_id":"90094","group":"Group2","full_date":"2025-12-05T18:54:43.939Z","date":"2025-12-05","time":"18:54:43"},{"rt":null,"stimulus":"<p style=\"font-size: 50px; margin: 0; text-align: center;\">+</p>","response":null,"trial_type":"html-keyboard-response","trial_index":225,"plugin_version":"2.1.0","time_elapsed":596788,"subject_id":"90094","group":"Group2","full_date":"2025-12-05T18:54:43.939Z","date":"2025-12-05","time":"18:54:43"},{"task":"memory_phase","broad_category":"M","image_png":"M_Phyllite_02.png","image_id":258,"category_name":"Phyllite","category":17,"distinct_rating":2.89,"distinct_type":"Bottom","rt":null,"stimulus":"Stimuli_Rocks480/M_Phyllite_02.png","response":null,"trial_type":"image-keyboard-response","trial_index":226,"plugin_version":"2.1.0","time_elapsed":599292,"subject_id":"90094","group":"Group2","full_date":"2025-12-05T18:54:43.939Z","date":"2025-12-05","time":"18:54:43"},{"rt":null,"stimulus":"<p style=\"font-size: 50px; margin: 0; text-align: center;\">+</p>","response":null,"trial_type":"html-keyboard-response","trial_index":227,"plugin_version":"2.1.0","time_elapsed":600295,"subject_id":"90094","group":"Group2","full_date":"2025-12-05T18:54:43.939Z","date":"2025-12-05","time":"18:54:43"},{"task":"memory_phase","broad_category":"I","image_png":"I_Gabbro_02.png","image_id":50,"category_name":"Gabbro","category":4,"distinct_rating":2.73,"distinct_type":"Bottom","rt":null,"stimulus":"Stimuli_Rocks480/I_Gabbro_02.png","response":null,"trial_type":"image-keyboard-response","trial_index":228,"plugin_version":"2.1.0","time_elapsed":602798,"subject_id":"90094","group":"Group2","full_date":"2025-12-05T18:54:43.939Z","date":"2025-12-05","time":"18:54:43"},{"rt":null,"stimulus":"<p style=\"font-size: 50px; margin: 0; text-align: center;\">+</p>","response":null,"trial_type":"html-keyboard-response","trial_index":229,"plugin_version":"2.1.0","time_elapsed":603802,"subject_id":"90094","group":"Group2","full_date":"2025-12-05T18:54:43.939Z","date":"2025-12-05","time":"18:54:43"},{"task":"memory_phase","broad_category":"M","image_png":"M_Quartzite_15.png","image_id":287,"category_name":"Quartzite","category":18,"distinct_rating":2.19,"distinct_type":"Bottom","rt":null,"stimulus":"Stimuli_Rocks480/M_Quartzite_15.png","response":null,"trial_type":"image-keyboard-response","trial_index":230,"plugin_version":"2.1.0","time_elapsed":606305,"subject_id":"90094","group":"Group2","full_date":"2025-12-05T18:54:43.939Z","date":"2025-12-05","time":"18:54:43"},{"rt":null,"stimulus":"<p style=\"font-size: 50px; margin: 0; text-align: center;\">+</p>","response":null,"trial_type":"html-keyboard-response","trial_index":231,"plugin_version":"2.1.0","time_elapsed":607309,"subject_id":"90094","group":"Group2","full_date":"2025-12-05T18:54:43.939Z","date":"2025-12-05","time":"18:54:43"},{"task":"memory_phase","broad_category":"I","image_png":"I_Basalt_13.png","image_id":29,"category_name":"Basalt","category":2,"distinct_rating":2.68,"distinct_type":"Bottom","rt":null,"stimulus":"Stimuli_Rocks480/I_Basalt_13.png","response":null,"trial_type":"image-keyboard-response","trial_index":232,"plugin_version":"2.1.0","time_elapsed":609812,"subject_id":"90094","group":"Group2","full_date":"2025-12-05T18:54:43.939Z","date":"2025-12-05","time":"18:54:43"},{"rt":null,"stimulus":"<p style=\"font-size: 50px; margin: 0; text-align: center;\">+</p>","response":null,"trial_type":"html-keyboard-response","trial_index":233,"plugin_version":"2.1.0","time_elapsed":610815,"subject_id":"90094","group":"Group2","full_date":"2025-12-05T18:54:43.939Z","date":"2025-12-05","time":"18:54:43"},{"task":"memory_phase","broad_category":"I","image_png":"I_Pumice_01.png","image_id":129,"category_name":"Pumice","category":9,"distinct_rating":3.25,"distinct_type":"Bottom","rt":null,"stimulus":"Stimuli_Rocks480/I_Pumice_01.png","response":null,"trial_type":"image-keyboard-response","trial_index":234,"plugin_version":"2.1.0","time_elapsed":613318,"subject_id":"90094","group":"Group2","full_date":"2025-12-05T18:54:43.939Z","date":"2025-12-05","time":"18:54:43"},{"rt":null,"stimulus":"<p style=\"font-size: 50px; margin: 0; text-align: center;\">+</p>","response":null,"trial_type":"html-keyboard-response","trial_index":235,"plugin_version":"2.1.0","time_elapsed":614321,"subject_id":"90094","group":"Group2","full_date":"2025-12-05T18:54:43.939Z","date":"2025-12-05","time":"18:54:43"},{"task":"memory_phase","broad_category":"I","image_png":"I_Pumice_14.png","image_id":142,"category_name":"Pumice","category":9,"distinct_rating":3.22,"distinct_type":"Bottom","rt":null,"stimulus":"Stimuli_Rocks480/I_Pumice_14.png","response":null,"trial_type":"image-keyboard-response","trial_index":236,"plugin_version":"2.1.0","time_elapsed":616824,"subject_id":"90094","group":"Group2","full_date":"2025-12-05T18:54:43.939Z","date":"2025-12-05","time":"18:54:43"},{"rt":null,"stimulus":"<p style=\"font-size: 50px; margin: 0; text-align: center;\">+</p>","response":null,"trial_type":"html-keyboard-response","trial_index":237,"plugin_version":"2.1.0","time_elapsed":617827,"subject_id":"90094","group":"Group2","full_date":"2025-12-05T18:54:43.939Z","date":"2025-12-05","time":"18:54:43"},{"task":"memory_phase","broad_category":"S","image_png":"S_Shale_07.png","image_id":471,"category_name":"Shale","category":30,"distinct_rating":2.73,"distinct_type":"Bottom","rt":null,"stimulus":"Stimuli_Rocks480/S_Shale_07.png","response":null,"trial_type":"image-keyboard-response","trial_index":238,"plugin_version":"2.1.0","time_elapsed":620330,"subject_id":"90094","group":"Group2","full_date":"2025-12-05T18:54:43.939Z","date":"2025-12-05","time":"18:54:43"},{"rt":null,"stimulus":"<p style=\"font-size: 50px; margin: 0; text-align: center;\">+</p>","response":null,"trial_type":"html-keyboard-response","trial_index":239,"plugin_version":"2.1.0","time_elapsed":621333,"subject_id":"90094","group":"Group2","full_date":"2025-12-05T18:54:43.939Z","date":"2025-12-05","time":"18:54:43"},{"task":"memory_phase","broad_category":"M","image_png":"M_Gneiss_10.png","image_id":202,"category_name":"Gneiss","category":13,"distinct_rating":3.09,"distinct_type":"Bottom","rt":null,"stimulus":"Stimuli_Rocks480/M_Gneiss_10.png","response":null,"trial_type":"image-keyboard-response","trial_index":240,"plugin_version":"2.1.0","time_elapsed":623838,"subject_id":"90094","group":"Group2","full_date":"2025-12-05T18:54:43.939Z","date":"2025-12-05","time":"18:54:43"},{"rt":null,"stimulus":"<p style=\"font-size: 50px; margin: 0; text-align: center;\">+</p>","response":null,"trial_type":"html-keyboard-response","trial_index":241,"plugin_version":"2.1.0","time_elapsed":624841,"subject_id":"90094","group":"Group2","full_date":"2025-12-05T18:54:43.939Z","date":"2025-12-05","time":"18:54:43"},{"task":"memory_phase","broad_category":"S","image_png":"S_Rock Salt_13.png","image_id":445,"category_name":"Rock Salt","category":28,"distinct_rating":7.58,"distinct_type":"Top","rt":null,"stimulus":"Stimuli_Rocks480/S_Rock Salt_13.png","response":null,"trial_type":"image-keyboard-response","trial_index":242,"plugin_version":"2.1.0","time_elapsed":627344,"subject_id":"90094","group":"Group2","full_date":"2025-12-05T18:54:43.939Z","date":"2025-12-05","time":"18:54:43"},{"rt":null,"stimulus":"<p style=\"font-size: 50px; margin: 0; text-align: center;\">+</p>","response":null,"trial_type":"html-keyboard-response","trial_index":243,"plugin_version":"2.1.0","time_elapsed":628347,"subject_id":"90094","group":"Group2","full_date":"2025-12-05T18:54:43.939Z","date":"2025-12-05","time":"18:54:43"},{"task":"memory_phase","broad_category":"S","image_png":"S_Sandstone_11.png","image_id":459,"category_name":"Sandstone","category":29,"distinct_rating":1.82,"distinct_type":"Bottom","rt":null,"stimulus":"Stimuli_Rocks480/S_Sandstone_11.png","response":null,"trial_type":"image-keyboard-response","trial_index":244,"plugin_version":"2.1.0","time_elapsed":630850,"subject_id":"90094","group":"Group2","full_date":"2025-12-05T18:54:43.939Z","date":"2025-12-05","time":"18:54:43"},{"rt":null,"stimulus":"<p style=\"font-size: 50px; margin: 0; text-align: center;\">+</p>","response":null,"trial_type":"html-keyboard-response","trial_index":245,"plugin_version":"2.1.0","time_elapsed":631853,"subject_id":"90094","group":"Group2","full_date":"2025-12-05T18:54:43.939Z","date":"2025-12-05","time":"18:54:43"},{"task":"memory_phase","broad_category":"S","image_png":"S_Rock Salt_15.png","image_id":447,"category_name":"Rock Salt","category":28,"distinct_rating":7.79,"distinct_type":"Top","rt":null,"stimulus":"Stimuli_Rocks480/S_Rock Salt_15.png","response":null,"trial_type":"image-keyboard-response","trial_index":246,"plugin_version":"2.1.0","time_elapsed":634356,"subject_id":"90094","group":"Group2","full_date":"2025-12-05T18:54:43.939Z","date":"2025-12-05","time":"18:54:43"},{"rt":null,"stimulus":"<p style=\"font-size: 50px; margin: 0; text-align: center;\">+</p>","response":null,"trial_type":"html-keyboard-response","trial_index":247,"plugin_version":"2.1.0","time_elapsed":635359,"subject_id":"90094","group":"Group2","full_date":"2025-12-05T18:54:43.939Z","date":"2025-12-05","time":"18:54:43"},{"task":"memory_phase","broad_category":"I","image_png":"I_Diorite_15.png","image_id":47,"category_name":"Diorite","category":3,"distinct_rating":3.05,"distinct_type":"Bottom","rt":null,"stimulus":"Stimuli_Rocks480/I_Diorite_15.png","response":null,"trial_type":"image-keyboard-response","trial_index":248,"plugin_version":"2.1.0","time_elapse