[{"width":1710,"height":981,"webaudio":true,"browser":"chrome","browser_version":"142.0.0","mobile":false,"os":"Mac OS","fullscreen":true,"vsync_rate":30,"webcam":true,"microphone":true,"trial_type":"browser-check","trial_index":0,"plugin_version":"2.1.0","time_elapsed":2033,"subject_id":"88571","group":"Group1","full_date":"2025-12-04T17:05:36.484Z","date":"2025-12-04","time":"17:05:36"},{"success":true,"timeout":false,"failed_images":[],"failed_audio":[],"failed_video":[],"trial_type":"preload","trial_index":1,"plugin_version":"2.1.0","time_elapsed":11650,"subject_id":"88571","group":"Group1","full_date":"2025-12-04T17:05:36.484Z","date":"2025-12-04","time":"17:05:36"},{"rt":7005,"url":"SONA_consent_memorability.html","trial_type":"external-html","trial_index":2,"plugin_version":"2.1.0","time_elapsed":18763,"subject_id":"88571","group":"Group1","full_date":"2025-12-04T17:05:36.484Z","date":"2025-12-04","time":"17:05:36"},{"success":true,"rt":1364,"trial_type":"fullscreen","trial_index":3,"plugin_version":"2.1.0","time_elapsed":21131,"subject_id":"88571","group":"Group1","full_date":"2025-12-04T17:05:36.484Z","date":"2025-12-04","time":"17:05:36"},{"rt":6063,"stimulus":"<div style=\"max-width: 760px; margin: auto; font-size: 20px; line-height: 1.5;\">\n      <h1 style=\"text-align:center; font-size: 30px;\">Instructions</h1>\n      <p>\n        Welcome to the study on <b>visual memory</b>. This experiment consists of <b>two phases</b>: \n        a <b>study phase</b> and a <b>test phase</b>.\n      </p>\n      <p>\n        In the study phase, you will see a series of rock images along with their category labels.\n        The images will appear one at a time.\n        <b>Your task</b> is to learn the categories to which the rock images belong \n        and to remember each image as accurately as possible.\n      </p> \n      <p>\n        Note that we will repeat the study phase <b>3 times</b>, \n        so you will have multiple opportunities to see and remember each image.\n      </p>\n      <p>\n        After the study phase, <b>your memory will be tested</b>. \n        Additional instructions for the test phase will be provided at that time.\n      </p>\n      <p>\n        If your computer has multiple <b>language settings</b> (e.g., English and another language),\n        please make sure it is set to English before starting.\n      </p>\n      <p>\n        You can track your progress using the <b>completion bar</b> at the top of the screen. \n        Please note that the bar will refresh when the test phase begins \n        to give you an accurate sense of your progress in both phases.\n      </p> \n      <p>\n        Press the button below when you are ready to begin.\n      </p>\n    </div>","response":0,"trial_type":"html-button-response","trial_index":4,"plugin_version":"2.1.0","time_elapsed":27196,"subject_id":"88571","group":"Group1","full_date":"2025-12-04T17:05:36.484Z","date":"2025-12-04","time":"17:05:36"},{"rt":null,"stimulus":"<p style=\"font-size: 50px; margin: 0; text-align: center;\">+</p>","response":null,"trial_type":"html-keyboard-response","trial_index":5,"plugin_version":"2.1.0","time_elapsed":28200,"subject_id":"88571","group":"Group1","full_date":"2025-12-04T17:05:36.484Z","date":"2025-12-04","time":"17:05:36"},{"task":"memory_phase","broad_category":"S","image_png":"S_Sandstone_15.png","image_id":463,"category_name":"Sandstone","category":29,"distinct_rating":2,"distinct_type":"Bottom","rt":null,"stimulus":"Stimuli_Rocks480/S_Sandstone_15.png","response":null,"trial_type":"image-keyboard-response","trial_index":6,"plugin_version":"2.1.0","time_elapsed":30706,"subject_id":"88571","group":"Group1","full_date":"2025-12-04T17:05:36.484Z","date":"2025-12-04","time":"17:05:36"},{"rt":null,"stimulus":"<p style=\"font-size: 50px; margin: 0; text-align: center;\">+</p>","response":null,"trial_type":"html-keyboard-response","trial_index":7,"plugin_version":"2.1.0","time_elapsed":31709,"subject_id":"88571","group":"Group1","full_date":"2025-12-04T17:05:36.484Z","date":"2025-12-04","time":"17:05:36"},{"task":"memory_phase","broad_category":"I","image_png":"I_Gabbro_16.png","image_id":64,"category_name":"Gabbro","category":4,"distinct_rating":2.52,"distinct_type":"Bottom","rt":null,"stimulus":"Stimuli_Rocks480/I_Gabbro_16.png","response":null,"trial_type":"image-keyboard-response","trial_index":8,"plugin_version":"2.1.0","time_elapsed":34212,"subject_id":"88571","group":"Group1","full_date":"2025-12-04T17:05:36.484Z","date":"2025-12-04","time":"17:05:36"},{"rt":null,"stimulus":"<p style=\"font-size: 50px; margin: 0; text-align: center;\">+</p>","response":null,"trial_type":"html-keyboard-response","trial_index":9,"plugin_version":"2.1.0","time_elapsed":35215,"subject_id":"88571","group":"Group1","full_date":"2025-12-04T17:05:36.484Z","date":"2025-12-04","time":"17:05:36"},{"task":"memory_phase","broad_category":"I","image_png":"I_Andesite_08.png","image_id":8,"category_name":"Andesite","category":1,"distinct_rating":1.95,"distinct_type":"Bottom","rt":null,"stimulus":"Stimuli_Rocks480/I_Andesite_08.png","response":null,"trial_type":"image-keyboard-response","trial_index":10,"plugin_version":"2.1.0","time_elapsed":37719,"subject_id":"88571","group":"Group1","full_date":"2025-12-04T17:05:36.484Z","date":"2025-12-04","time":"17:05:36"},{"rt":null,"stimulus":"<p style=\"font-size: 50px; margin: 0; text-align: center;\">+</p>","response":null,"trial_type":"html-keyboard-response","trial_index":11,"plugin_version":"2.1.0","time_elapsed":38721,"subject_id":"88571","group":"Group1","full_date":"2025-12-04T17:05:36.484Z","date":"2025-12-04","time":"17:05:36"},{"task":"memory_phase","broad_category":"I","image_png":"I_Rhyolite_11.png","image_id":155,"category_name":"Rhyolite","category":10,"distinct_rating":1.73,"distinct_type":"Bottom","rt":null,"stimulus":"Stimuli_Rocks480/I_Rhyolite_11.png","response":null,"trial_type":"image-keyboard-response","trial_index":12,"plugin_version":"2.1.0","time_elapsed":41225,"subject_id":"88571","group":"Group1","full_date":"2025-12-04T17:05:36.484Z","date":"2025-12-04","time":"17:05:36"},{"rt":null,"stimulus":"<p style=\"font-size: 50px; margin: 0; text-align: center;\">+</p>","response":null,"trial_type":"html-keyboard-response","trial_index":13,"plugin_version":"2.1.0","time_elapsed":42227,"subject_id":"88571","group":"Group1","full_date":"2025-12-04T17:05:36.484Z","date":"2025-12-04","time":"17:05:36"},{"task":"memory_phase","broad_category":"M","image_png":"M_Slate_11.png","image_id":315,"category_name":"Slate","category":20,"distinct_rating":2.75,"distinct_type":"Bottom","rt":null,"stimulus":"Stimuli_Rocks480/M_Slate_11.png","response":null,"trial_type":"image-keyboard-response","trial_index":14,"plugin_version":"2.1.0","time_elapsed":44731,"subject_id":"88571","group":"Group1","full_date":"2025-12-04T17:05:36.484Z","date":"2025-12-04","time":"17:05:36"},{"rt":null,"stimulus":"<p style=\"font-size: 50px; margin: 0; text-align: center;\">+</p>","response":null,"trial_type":"html-keyboard-response","trial_index":15,"plugin_version":"2.1.0","time_elapsed":45734,"subject_id":"88571","group":"Group1","full_date":"2025-12-04T17:05:36.484Z","date":"2025-12-04","time":"17:05:36"},{"task":"memory_phase","broad_category":"I","image_png":"I_Pegmatite_10.png","image_id":106,"category_name":"Pegmatite","category":7,"distinct_rating":7.66,"distinct_type":"Top","rt":null,"stimulus":"Stimuli_Rocks480/I_Pegmatite_10.png","response":null,"trial_type":"image-keyboard-response","trial_index":16,"plugin_version":"2.1.0","time_elapsed":48238,"subject_id":"88571","group":"Group1","full_date":"2025-12-04T17:05:36.484Z","date":"2025-12-04","time":"17:05:36"},{"rt":null,"stimulus":"<p style=\"font-size: 50px; margin: 0; text-align: center;\">+</p>","response":null,"trial_type":"html-keyboard-response","trial_index":17,"plugin_version":"2.1.0","time_elapsed":49241,"subject_id":"88571","group":"Group1","full_date":"2025-12-04T17:05:36.484Z","date":"2025-12-04","time":"17:05:36"},{"task":"memory_phase","broad_category":"M","image_png":"M_Quartzite_08.png","image_id":280,"category_name":"Quartzite","category":18,"distinct_rating":2.15,"distinct_type":"Bottom","rt":null,"stimulus":"Stimuli_Rocks480/M_Quartzite_08.png","response":null,"trial_type":"image-keyboard-response","trial_index":18,"plugin_version":"2.1.0","time_elapsed":51744,"subject_id":"88571","group":"Group1","full_date":"2025-12-04T17:05:36.484Z","date":"2025-12-04","time":"17:05:36"},{"rt":null,"stimulus":"<p style=\"font-size: 50px; margin: 0; text-align: center;\">+</p>","response":null,"trial_type":"html-keyboard-response","trial_index":19,"plugin_version":"2.1.0","time_elapsed":52747,"subject_id":"88571","group":"Group1","full_date":"2025-12-04T17:05:36.484Z","date":"2025-12-04","time":"17:05:36"},{"task":"memory_phase","broad_category":"M","image_png":"M_Phyllite_07.png","image_id":263,"category_name":"Phyllite","category":17,"distinct_rating":2.59,"distinct_type":"Bottom","rt":null,"stimulus":"Stimuli_Rocks480/M_Phyllite_07.png","response":null,"trial_type":"image-keyboard-response","trial_index":20,"plugin_version":"2.1.0","time_elapsed":55251,"subject_id":"88571","group":"Group1","full_date":"2025-12-04T17:05:36.484Z","date":"2025-12-04","time":"17:05:36"},{"rt":null,"stimulus":"<p style=\"font-size: 50px; margin: 0; text-align: center;\">+</p>","response":null,"trial_type":"html-keyboard-response","trial_index":21,"plugin_version":"2.1.0","time_elapsed":56254,"subject_id":"88571","group":"Group1","full_date":"2025-12-04T17:05:36.484Z","date":"2025-12-04","time":"17:05:36"},{"task":"memory_phase","broad_category":"S","image_png":"S_Dolomite_13.png","image_id":397,"category_name":"Dolomite","category":25,"distinct_rating":1.77,"distinct_type":"Bottom","rt":null,"stimulus":"Stimuli_Rocks480/S_Dolomite_13.png","response":null,"trial_type":"image-keyboard-response","trial_index":22,"plugin_version":"2.1.0","time_elapsed":58757,"subject_id":"88571","group":"Group1","full_date":"2025-12-04T17:05:36.484Z","date":"2025-12-04","time":"17:05:36"},{"rt":null,"stimulus":"<p style=\"font-size: 50px; margin: 0; text-align: center;\">+</p>","response":null,"trial_type":"html-keyboard-response","trial_index":23,"plugin_version":"2.1.0","time_elapsed":59760,"subject_id":"88571","group":"Group1","full_date":"2025-12-04T17:05:36.484Z","date":"2025-12-04","time":"17:05:36"},{"task":"memory_phase","broad_category":"I","image_png":"I_Diorite_05.png","image_id":37,"category_name":"Diorite","category":3,"distinct_rating":3.08,"distinct_type":"Bottom","rt":null,"stimulus":"Stimuli_Rocks480/I_Diorite_05.png","response":null,"trial_type":"image-keyboard-response","trial_index":24,"plugin_version":"2.1.0","time_elapsed":62263,"subject_id":"88571","group":"Group1","full_date":"2025-12-04T17:05:36.484Z","date":"2025-12-04","time":"17:05:36"},{"rt":null,"stimulus":"<p style=\"font-size: 50px; margin: 0; text-align: center;\">+</p>","response":null,"trial_type":"html-keyboard-response","trial_index":25,"plugin_version":"2.1.0","time_elapsed":63266,"subject_id":"88571","group":"Group1","full_date":"2025-12-04T17:05:36.484Z","date":"2025-12-04","time":"17:05:36"},{"task":"memory_phase","broad_category":"S","image_png":"S_Sandstone_03.png","image_id":451,"category_name":"Sandstone","category":29,"distinct_rating":1.86,"distinct_type":"Bottom","rt":null,"stimulus":"Stimuli_Rocks480/S_Sandstone_03.png","response":null,"trial_type":"image-keyboard-response","trial_index":26,"plugin_version":"2.1.0","time_elapsed":65769,"subject_id":"88571","group":"Group1","full_date":"2025-12-04T17:05:36.484Z","date":"2025-12-04","time":"17:05:36"},{"rt":null,"stimulus":"<p style=\"font-size: 50px; margin: 0; text-align: center;\">+</p>","response":null,"trial_type":"html-keyboard-response","trial_index":27,"plugin_version":"2.1.0","time_elapsed":66772,"subject_id":"88571","group":"Group1","full_date":"2025-12-04T17:05:36.484Z","date":"2025-12-04","time":"17:05:36"},{"task":"memory_phase","broad_category":"I","image_png":"I_Diorite_04.png","image_id":36,"category_name":"Diorite","category":3,"distinct_rating":2.98,"distinct_type":"Bottom","rt":null,"stimulus":"Stimuli_Rocks480/I_Diorite_04.png","response":null,"trial_type":"image-keyboard-response","trial_index":28,"plugin_version":"2.1.0","time_elapsed":69276,"subject_id":"88571","group":"Group1","full_date":"2025-12-04T17:05:36.484Z","date":"2025-12-04","time":"17:05:36"},{"rt":null,"stimulus":"<p style=\"font-size: 50px; margin: 0; text-align: center;\">+</p>","response":null,"trial_type":"html-keyboard-response","trial_index":29,"plugin_version":"2.1.0","time_elapsed":70279,"subject_id":"88571","group":"Group1","full_date":"2025-12-04T17:05:36.484Z","date":"2025-12-04","time":"17:05:36"},{"task":"memory_phase","broad_category":"I","image_png":"I_Basalt_01.png","image_id":17,"category_name":"Basalt","category":2,"distinct_rating":1.92,"distinct_type":"Bottom","rt":null,"stimulus":"Stimuli_Rocks480/I_Basalt_01.png","response":null,"trial_type":"image-keyboard-response","trial_index":30,"plugin_version":"2.1.0","time_elapsed":72783,"subject_id":"88571","group":"Group1","full_date":"2025-12-04T17:05:36.484Z","date":"2025-12-04","time":"17:05:36"},{"rt":null,"stimulus":"<p style=\"font-size: 50px; margin: 0; text-align: center;\">+</p>","response":null,"trial_type":"html-keyboard-response","trial_index":31,"plugin_version":"2.1.0","time_elapsed":73785,"subject_id":"88571","group":"Group1","full_date":"2025-12-04T17:05:36.484Z","date":"2025-12-04","time":"17:05:36"},{"task":"memory_phase","broad_category":"M","image_png":"M_Gneiss_05.png","image_id":197,"category_name":"Gneiss","category":13,"distinct_rating":2.97,"distinct_type":"Bottom","rt":null,"stimulus":"Stimuli_Rocks480/M_Gneiss_05.png","response":null,"trial_type":"image-keyboard-response","trial_index":32,"plugin_version":"2.1.0","time_elapsed":76288,"subject_id":"88571","group":"Group1","full_date":"2025-12-04T17:05:36.484Z","date":"2025-12-04","time":"17:05:36"},{"rt":null,"stimulus":"<p style=\"font-size: 50px; margin: 0; text-align: center;\">+</p>","response":null,"trial_type":"html-keyboard-response","trial_index":33,"plugin_version":"2.1.0","time_elapsed":77291,"subject_id":"88571","group":"Group1","full_date":"2025-12-04T17:05:36.484Z","date":"2025-12-04","time":"17:05:36"},{"task":"memory_phase","broad_category":"M","image_png":"M_Marble_04.png","image_id":228,"category_name":"Marble","category":15,"distinct_rating":3.15,"distinct_type":"Bottom","rt":null,"stimulus":"Stimuli_Rocks480/M_Marble_04.png","response":null,"trial_type":"image-keyboard-response","trial_index":34,"plugin_version":"2.1.0","time_elapsed":79794,"subject_id":"88571","group":"Group1","full_date":"2025-12-04T17:05:36.484Z","date":"2025-12-04","time":"17:05:36"},{"rt":null,"stimulus":"<p style=\"font-size: 50px; margin: 0; text-align: center;\">+</p>","response":null,"trial_type":"html-keyboard-response","trial_index":35,"plugin_version":"2.1.0","time_elapsed":80796,"subject_id":"88571","group":"Group1","full_date":"2025-12-04T17:05:36.484Z","date":"2025-12-04","time":"17:05:36"},{"task":"memory_phase","broad_category":"I","image_png":"I_Rhyolite_14.png","image_id":158,"category_name":"Rhyolite","category":10,"distinct_rating":2.59,"distinct_type":"Bottom","rt":null,"stimulus":"Stimuli_Rocks480/I_Rhyolite_14.png","response":null,"trial_type":"image-keyboard-response","trial_index":36,"plugin_version":"2.1.0","time_elapsed":83299,"subject_id":"88571","group":"Group1","full_date":"2025-12-04T17:05:36.484Z","date":"2025-12-04","time":"17:05:36"},{"rt":null,"stimulus":"<p style=\"font-size: 50px; margin: 0; text-align: center;\">+</p>","response":null,"trial_type":"html-keyboard-response","trial_index":37,"plugin_version":"2.1.0","time_elapsed":84301,"subject_id":"88571","group":"Group1","full_date":"2025-12-04T17:05:36.484Z","date":"2025-12-04","time":"17:05:36"},{"task":"memory_phase","broad_category":"I","image_png":"I_Gabbro_11.png","image_id":59,"category_name":"Gabbro","category":4,"distinct_rating":1.99,"distinct_type":"Bottom","rt":null,"stimulus":"Stimuli_Rocks480/I_Gabbro_11.png","response":null,"trial_type":"image-keyboard-response","trial_index":38,"plugin_version":"2.1.0","time_elapsed":86804,"subject_id":"88571","group":"Group1","full_date":"2025-12-04T17:05:36.484Z","date":"2025-12-04","time":"17:05:36"},{"rt":null,"stimulus":"<p style=\"font-size: 50px; margin: 0; text-align: center;\">+</p>","response":null,"trial_type":"html-keyboard-response","trial_index":39,"plugin_version":"2.1.0","time_elapsed":87807,"subject_id":"88571","group":"Group1","full_date":"2025-12-04T17:05:36.484Z","date":"2025-12-04","time":"17:05:36"},{"task":"memory_phase","broad_category":"I","image_png":"I_Pumice_08.png","image_id":136,"category_name":"Pumice","category":9,"distinct_rating":3.1,"distinct_type":"Bottom","rt":null,"stimulus":"Stimuli_Rocks480/I_Pumice_08.png","response":null,"trial_type":"image-keyboard-response","trial_index":40,"plugin_version":"2.1.0","time_elapsed":90311,"subject_id":"88571","group":"Group1","full_date":"2025-12-04T17:05:36.484Z","date":"2025-12-04","time":"17:05:36"},{"rt":null,"stimulus":"<p style=\"font-size: 50px; margin: 0; text-align: center;\">+</p>","response":null,"trial_type":"html-keyboard-response","trial_index":41,"plugin_version":"2.1.0","time_elapsed":91314,"subject_id":"88571","group":"Group1","full_date":"2025-12-04T17:05:36.484Z","date":"2025-12-04","time":"17:05:36"},{"task":"memory_phase","broad_category":"M","image_png":"M_Quartzite_05.png","image_id":277,"category_name":"Quartzite","category":18,"distinct_rating":2.23,"distinct_type":"Bottom","rt":null,"stimulus":"Stimuli_Rocks480/M_Quartzite_05.png","response":null,"trial_type":"image-keyboard-response","trial_index":42,"plugin_version":"2.1.0","time_elapsed":93817,"subject_id":"88571","group":"Group1","full_date":"2025-12-04T17:05:36.484Z","date":"2025-12-04","time":"17:05:36"},{"rt":null,"stimulus":"<p style=\"font-size: 50px; margin: 0; text-align: center;\">+</p>","response":null,"trial_type":"html-keyboard-response","trial_index":43,"plugin_version":"2.1.0","time_elapsed":94820,"subject_id":"88571","group":"Group1","full_date":"2025-12-04T17:05:36.484Z","date":"2025-12-04","time":"17:05:36"},{"task":"memory_phase","broad_category":"S","image_png":"S_Dolomite_12.png","image_id":396,"category_name":"Dolomite","category":25,"distinct_rating":1.85,"distinct_type":"Bottom","rt":null,"stimulus":"Stimuli_Rocks480/S_Dolomite_12.png","response":null,"trial_type":"image-keyboard-response","trial_index":44,"plugin_version":"2.1.0","time_elapsed":97323,"subject_id":"88571","group":"Group1","full_date":"2025-12-04T17:05:36.484Z","date":"2025-12-04","time":"17:05:36"},{"rt":null,"stimulus":"<p style=\"font-size: 50px; margin: 0; text-align: center;\">+</p>","response":null,"trial_type":"html-keyboard-response","trial_index":45,"plugin_version":"2.1.0","time_elapsed":98326,"subject_id":"88571","group":"Group1","full_date":"2025-12-04T17:05:36.484Z","date":"2025-12-04","time":"17:05:36"},{"task":"memory_phase","broad_category":"I","image_png":"I_Basalt_02.png","image_id":18,"category_name":"Basalt","category":2,"distinct_rating":1.84,"distinct_type":"Bottom","rt":null,"stimulus":"Stimuli_Rocks480/I_Basalt_02.png","response":null,"trial_type":"image-keyboard-response","trial_index":46,"plugin_version":"2.1.0","time_elapsed":100830,"subject_id":"88571","group":"Group1","full_date":"2025-12-04T17:05:36.484Z","date":"2025-12-04","time":"17:05:36"},{"rt":null,"stimulus":"<p style=\"font-size: 50px; margin: 0; text-align: center;\">+</p>","response":null,"trial_type":"html-keyboard-response","trial_index":47,"plugin_version":"2.1.0","time_elapsed":101832,"subject_id":"88571","group":"Group1","full_date":"2025-12-04T17:05:36.484Z","date":"2025-12-04","time":"17:05:36"},{"task":"memory_phase","broad_category":"I","image_png":"I_Gabbro_08.png","image_id":56,"category_name":"Gabbro","category":4,"distinct_rating":3.02,"distinct_type":"Bottom","rt":null,"stimulus":"Stimuli_Rocks480/I_Gabbro_08.png","response":null,"trial_type":"image-keyboard-response","trial_index":48,"plugin_version":"2.1.0","time_elapsed":104335,"subject_id":"88571","group":"Group1","full_date":"2025-12-04T17:05:36.484Z","date":"2025-12-04","time":"17:05:36"},{"rt":null,"stimulus":"<p style=\"font-size: 50px; margin: 0; text-align: center;\">+</p>","response":null,"trial_type":"html-keyboard-response","trial_index":49,"plugin_version":"2.1.0","time_elapsed":105337,"subject_id":"88571","group":"Group1","full_date":"2025-12-04T17:05:36.484Z","date":"2025-12-04","time":"17:05:36"},{"task":"memory_phase","broad_category":"S","image_png":"S_Chert_10.png","image_id":362,"category_name":"Chert","category":23,"distinct_rating":7.17,"distinct_type":"Top","rt":null,"stimulus":"Stimuli_Rocks480/S_Chert_10.png","response":null,"trial_type":"image-keyboard-response","trial_index":50,"plugin_version":"2.1.0","time_elapsed":107841,"subject_id":"88571","group":"Group1","full_date":"2025-12-04T17:05:36.484Z","date":"2025-12-04","time":"17:05:36"},{"rt":null,"stimulus":"<p style=\"font-size: 50px; margin: 0; text-align: center;\">+</p>","response":null,"trial_type":"html-keyboard-response","trial_index":51,"plugin_version":"2.1.0","time_elapsed":108844,"subject_id":"88571","group":"Group1","full_date":"2025-12-04T17:05:36.484Z","date":"2025-12-04","time":"17:05:36"},{"task":"memory_phase","broad_category":"M","image_png":"M_Slate_15.png","image_id":319,"category_name":"Slate","category":20,"distinct_rating":2.13,"distinct_type":"Bottom","rt":null,"stimulus":"Stimuli_Rocks480/M_Slate_15.png","response":null,"trial_type":"image-keyboard-response","trial_index":52,"plugin_version":"2.1.0","time_elapsed":111347,"subject_id":"88571","group":"Group1","full_date":"2025-12-04T17:05:36.484Z","date":"2025-12-04","time":"17:05:36"},{"rt":null,"stimulus":"<p style=\"font-size: 50px; margin: 0; text-align: center;\">+</p>","response":null,"trial_type":"html-keyboard-response","trial_index":53,"plugin_version":"2.1.0","time_elapsed":112349,"subject_id":"88571","group":"Group1","full_date":"2025-12-04T17:05:36.484Z","date":"2025-12-04","time":"17:05:36"},{"task":"memory_phase","broad_category":"I","image_png":"I_Pegmatite_16.png","image_id":112,"category_name":"Pegmatite","category":7,"distinct_rating":7.03,"distinct_type":"Top","rt":null,"stimulus":"Stimuli_Rocks480/I_Pegmatite_16.png","response":null,"trial_type":"image-keyboard-response","trial_index":54,"plugin_version":"2.1.0","time_elapsed":114852,"subject_id":"88571","group":"Group1","full_date":"2025-12-04T17:05:36.484Z","date":"2025-12-04","time":"17:05:36"},{"rt":1445,"stimulus":"<p style=\"max-width: 760px; margin: auto; font-size: 35px; line-height: 1.5;\">Press SPACE to continue study phase</p>","response":" ","trial_type":"html-keyboard-response","trial_index":55,"plugin_version":"2.1.0","time_elapsed":116299,"subject_id":"88571","group":"Group1","full_date":"2025-12-04T17:05:36.484Z","date":"2025-12-04","time":"17:05:36"},{"rt":null,"stimulus":"<p style=\"font-size: 50px; margin: 0; text-align: center;\">+</p>","response":null,"trial_type":"html-keyboard-response","trial_index":56,"plugin_version":"2.1.0","time_elapsed":117302,"subject_id":"88571","group":"Group1","full_date":"2025-12-04T17:05:36.484Z","date":"2025-12-04","time":"17:05:36"},{"task":"memory_phase","broad_category":"M","image_png":"M_Gneiss_13.png","image_id":205,"category_name":"Gneiss","category":13,"distinct_rating":3.26,"distinct_type":"Bottom","rt":null,"stimulus":"Stimuli_Rocks480/M_Gneiss_13.png","response":null,"trial_type":"image-keyboard-response","trial_index":57,"plugin_version":"2.1.0","time_elapsed":119804,"subject_id":"88571","group":"Group1","full_date":"2025-12-04T17:05:36.484Z","date":"2025-12-04","time":"17:05:36"},{"rt":null,"stimulus":"<p style=\"font-size: 50px; margin: 0; text-align: center;\">+</p>","response":null,"trial_type":"html-keyboard-response","trial_index":58,"plugin_version":"2.1.0","time_elapsed":120807,"subject_id":"88571","group":"Group1","full_date":"2025-12-04T17:05:36.484Z","date":"2025-12-04","time":"17:05:36"},{"task":"memory_phase","broad_category":"S","image_png":"S_Sandstone_16.png","image_id":464,"category_name":"Sandstone","category":29,"distinct_rating":1.93,"distinct_type":"Bottom","rt":null,"stimulus":"Stimuli_Rocks480/S_Sandstone_16.png","response":null,"trial_type":"image-keyboard-response","trial_index":59,"plugin_version":"2.1.0","time_elapsed":123311,"subject_id":"88571","group":"Group1","full_date":"2025-12-04T17:05:36.484Z","date":"2025-12-04","time":"17:05:36"},{"rt":null,"stimulus":"<p style=\"font-size: 50px; margin: 0; text-align: center;\">+</p>","response":null,"trial_type":"html-keyboard-response","trial_index":60,"plugin_version":"2.1.0","time_elapsed":124313,"subject_id":"88571","group":"Group1","full_date":"2025-12-04T17:05:36.484Z","date":"2025-12-04","time":"17:05:36"},{"task":"memory_phase","broad_category":"M","image_png":"M_Phyllite_10.png","image_id":266,"category_name":"Phyllite","category":17,"distinct_rating":2.6,"distinct_type":"Bottom","rt":null,"stimulus":"Stimuli_Rocks480/M_Phyllite_10.png","response":null,"trial_type":"image-keyboard-response","trial_index":61,"plugin_version":"2.1.0","time_elapsed":126817,"subject_id":"88571","group":"Group1","full_date":"2025-12-04T17:05:36.484Z","date":"2025-12-04","time":"17:05:36"},{"rt":null,"stimulus":"<p style=\"font-size: 50px; margin: 0; text-align: center;\">+</p>","response":null,"trial_type":"html-keyboard-response","trial_index":62,"plugin_version":"2.1.0","time_elapsed":127819,"subject_id":"88571","group":"Group1","full_date":"2025-12-04T17:05:36.484Z","date":"2025-12-04","time":"17:05:36"},{"task":"memory_phase","broad_category":"M","image_png":"M_Gneiss_06.png","image_id":198,"category_name":"Gneiss","category":13,"distinct_rating":2.65,"distinct_type":"Bottom","rt":null,"stimulus":"Stimuli_Rocks480/M_Gneiss_06.png","response":null,"trial_type":"image-keyboard-response","trial_index":63,"plugin_version":"2.1.0","time_elapsed":130323,"subject_id":"88571","group":"Group1","full_date":"2025-12-04T17:05:36.484Z","date":"2025-12-04","time":"17:05:36"},{"rt":null,"stimulus":"<p style=\"font-size: 50px; margin: 0; text-align: center;\">+</p>","response":null,"trial_type":"html-keyboard-response","trial_index":64,"plugin_version":"2.1.0","time_elapsed":131326,"subject_id":"88571","group":"Group1","full_date":"2025-12-04T17:05:36.484Z","date":"2025-12-04","time":"17:05:36"},{"task":"memory_phase","broad_category":"S","image_png":"S_Breccia_11.png","image_id":347,"category_name":"Breccia","category":22,"distinct_rating":6.7,"distinct_type":"Top","rt":null,"stimulus":"Stimuli_Rocks480/S_Breccia_11.png","response":null,"trial_type":"image-keyboard-response","trial_index":65,"plugin_version":"2.1.0","time_elapsed":133829,"subject_id":"88571","group":"Group1","full_date":"2025-12-04T17:05:36.484Z","date":"2025-12-04","time":"17:05:36"},{"rt":null,"stimulus":"<p style=\"font-size: 50px; margin: 0; text-align: center;\">+</p>","response":null,"trial_type":"html-keyboard-response","trial_index":66,"plugin_version":"2.1.0","time_elapsed":134832,"subject_id":"88571","group":"Group1","full_date":"2025-12-04T17:05:36.484Z","date":"2025-12-04","time":"17:05:36"},{"task":"memory_phase","broad_category":"I","image_png":"I_Andesite_10.png","image_id":10,"category_name":"Andesite","category":1,"distinct_rating":3.15,"distinct_type":"Bottom","rt":null,"stimulus":"Stimuli_Rocks480/I_Andesite_10.png","response":null,"trial_type":"image-keyboard-response","trial_index":67,"plugin_version":"2.1.0","time_elapsed":137336,"subject_id":"88571","group":"Group1","full_date":"2025-12-04T17:05:36.484Z","date":"2025-12-04","time":"17:05:36"},{"rt":null,"stimulus":"<p style=\"font-size: 50px; margin: 0; text-align: center;\">+</p>","response":null,"trial_type":"html-keyboard-response","trial_index":68,"plugin_version":"2.1.0","time_elapsed":138338,"subject_id":"88571","group":"Group1","full_date":"2025-12-04T17:05:36.484Z","date":"2025-12-04","time":"17:05:36"},{"task":"memory_phase","broad_category":"M","image_png":"M_Marble_16.png","image_id":240,"category_name":"Marble","category":15,"distinct_rating":2.57,"distinct_type":"Bottom","rt":null,"stimulus":"Stimuli_Rocks480/M_Marble_16.png","response":null,"trial_type":"image-keyboard-response","trial_index":69,"plugin_version":"2.1.0","time_elapsed":140842,"subject_id":"88571","group":"Group1","full_date":"2025-12-04T17:05:36.484Z","date":"2025-12-04","time":"17:05:36"},{"rt":null,"stimulus":"<p style=\"font-size: 50px; margin: 0; text-align: center;\">+</p>","response":null,"trial_type":"html-keyboard-response","trial_index":70,"plugin_version":"2.1.0","time_elapsed":141844,"subject_id":"88571","group":"Group1","full_date":"2025-12-04T17:05:36.484Z","date":"2025-12-04","time":"17:05:36"},{"task":"memory_phase","broad_category":"M","image_png":"M_Quartzite_13.png","image_id":285,"category_name":"Quartzite","category":18,"distinct_rating":2.27,"distinct_type":"Bottom","rt":null,"stimulus":"Stimuli_Rocks480/M_Quartzite_13.png","response":null,"trial_type":"image-keyboard-response","trial_index":71,"plugin_version":"2.1.0","time_elapsed":144347,"subject_id":"88571","group":"Group1","full_date":"2025-12-04T17:05:36.484Z","date":"2025-12-04","time":"17:05:36"},{"rt":null,"stimulus":"<p style=\"font-size: 50px; margin: 0; text-align: center;\">+</p>","response":null,"trial_type":"html-keyboard-response","trial_index":72,"plugin_version":"2.1.0","time_elapsed":145350,"subject_id":"88571","group":"Group1","full_date":"2025-12-04T17:05:36.484Z","date":"2025-12-04","time":"17:05:36"},{"task":"memory_phase","broad_category":"I","image_png":"I_Andesite_06.png","image_id":6,"category_name":"Andesite","category":1,"distinct_rating":3.17,"distinct_type":"Bottom","rt":null,"stimulus":"Stimuli_Rocks480/I_Andesite_06.png","response":null,"trial_type":"image-keyboard-response","trial_index":73,"plugin_version":"2.1.0","time_elapsed":147854,"subject_id":"88571","group":"Group1","full_date":"2025-12-04T17:05:36.484Z","date":"2025-12-04","time":"17:05:36"},{"rt":null,"stimulus":"<p style=\"font-size: 50px; margin: 0; text-align: center;\">+</p>","response":null,"trial_type":"html-keyboard-response","trial_index":74,"plugin_version":"2.1.0","time_elapsed":148856,"subject_id":"88571","group":"Group1","full_date":"2025-12-04T17:05:36.484Z","date":"2025-12-04","time":"17:05:36"},{"task":"memory_phase","broad_category":"S","image_png":"S_Shale_01.png","image_id":465,"category_name":"Shale","category":30,"distinct_rating":2.7,"distinct_type":"Bottom","rt":null,"stimulus":"Stimuli_Rocks480/S_Shale_01.png","response":null,"trial_type":"image-keyboard-response","trial_index":75,"plugin_version":"2.1.0","time_elapsed":151358,"subject_id":"88571","group":"Group1","full_date":"2025-12-04T17:05:36.484Z","date":"2025-12-04","time":"17:05:36"},{"rt":null,"stimulus":"<p style=\"font-size: 50px; margin: 0; text-align: center;\">+</p>","response":null,"trial_type":"html-keyboard-response","trial_index":76,"plugin_version":"2.1.0","time_elapsed":152360,"subject_id":"88571","group":"Group1","full_date":"2025-12-04T17:05:36.484Z","date":"2025-12-04","time":"17:05:36"},{"task":"memory_phase","broad_category":"S","image_png":"S_Dolomite_14.png","image_id":398,"category_name":"Dolomite","category":25,"distinct_rating":1.43,"distinct_type":"Bottom","rt":null,"stimulus":"Stimuli_Rocks480/S_Dolomite_14.png","response":null,"trial_type":"image-keyboard-response","trial_index":77,"plugin_version":"2.1.0","time_elapsed":154864,"subject_id":"88571","group":"Group1","full_date":"2025-12-04T17:05:36.484Z","date":"2025-12-04","time":"17:05:36"},{"rt":null,"stimulus":"<p style=\"font-size: 50px; margin: 0; text-align: center;\">+</p>","response":null,"trial_type":"html-keyboard-response","trial_index":78,"plugin_version":"2.1.0","time_elapsed":155867,"subject_id":"88571","group":"Group1","full_date":"2025-12-04T17:05:36.484Z","date":"2025-12-04","time":"17:05:36"},{"task":"memory_phase","broad_category":"S","image_png":"S_Rock Gypsum_04.png","image_id":420,"category_name":"Rock Gypsum","category":27,"distinct_rating":7.61,"distinct_type":"Top","rt":null,"stimulus":"Stimuli_Rocks480/S_Rock Gypsum_04.png","response":null,"trial_type":"image-keyboard-response","trial_index":79,"plugin_version":"2.1.0","time_elapsed":158370,"subject_id":"88571","group":"Group1","full_date":"2025-12-04T17:05:36.484Z","date":"2025-12-04","time":"17:05:36"},{"rt":null,"stimulus":"<p style=\"font-size: 50px; margin: 0; text-align: center;\">+</p>","response":null,"trial_type":"html-keyboard-response","trial_index":80,"plugin_version":"2.1.0","time_elapsed":159373,"subject_id":"88571","group":"Group1","full_date":"2025-12-04T17:05:36.484Z","date":"2025-12-04","time":"17:05:36"},{"task":"memory_phase","broad_category":"I","image_png":"I_Rhyolite_16.png","image_id":160,"category_name":"Rhyolite","category":10,"distinct_rating":2.19,"distinct_type":"Bottom","rt":null,"stimulus":"Stimuli_Rocks480/I_Rhyolite_16.png","response":null,"trial_type":"image-keyboard-response","trial_index":81,"plugin_version":"2.1.0","time_elapsed":161876,"subject_id":"88571","group":"Group1","full_date":"2025-12-04T17:05:36.484Z","date":"2025-12-04","time":"17:05:36"},{"rt":null,"stimulus":"<p style=\"font-size: 50px; margin: 0; text-align: center;\">+</p>","response":null,"trial_type":"html-keyboard-response","trial_index":82,"plugin_version":"2.1.0","time_elapsed":162878,"subject_id":"88571","group":"Group1","full_date":"2025-12-04T17:05:36.484Z","date":"2025-12-04","time":"17:05:36"},{"task":"memory_phase","broad_category":"I","image_png":"I_Pumice_12.png","image_id":140,"category_name":"Pumice","category":9,"distinct_rating":2.97,"distinct_type":"Bottom","rt":null,"stimulus":"Stimuli_Rocks480/I_Pumice_12.png","response":null,"trial_type":"image-keyboard-response","trial_index":83,"plugin_version":"2.1.0","time_elapsed":165382,"subject_id":"88571","group":"Group1","full_date":"2025-12-04T17:05:36.484Z","date":"2025-12-04","time":"17:05:36"},{"rt":null,"stimulus":"<p style=\"font-size: 50px; margin: 0; text-align: center;\">+</p>","response":null,"trial_type":"html-keyboard-response","trial_index":84,"plugin_version":"2.1.0","time_elapsed":166385,"subject_id":"88571","group":"Group1","full_date":"2025-12-04T17:05:36.484Z","date":"2025-12-04","time":"17:05:36"},{"task":"memory_phase","broad_category":"S","image_png":"S_Shale_12.png","image_id":476,"category_name":"Shale","category":30,"distinct_rating":2.48,"distinct_type":"Bottom","rt":null,"stimulus":"Stimuli_Rocks480/S_Shale_12.png","response":null,"trial_type":"image-keyboard-response","trial_index":85,"plugin_version":"2.1.0","time_elapsed":168888,"subject_id":"88571","group":"Group1","full_date":"2025-12-04T17:05:36.484Z","date":"2025-12-04","time":"17:05:36"},{"rt":null,"stimulus":"<p style=\"font-size: 50px; margin: 0; text-align: center;\">+</p>","response":null,"trial_type":"html-keyboard-response","trial_index":86,"plugin_version":"2.1.0","time_elapsed":169891,"subject_id":"88571","group":"Group1","full_date":"2025-12-04T17:05:36.484Z","date":"2025-12-04","time":"17:05:36"},{"task":"memory_phase","broad_category":"I","image_png":"I_Obsidian_05.png","image_id":85,"category_name":"Obsidian","category":6,"distinct_rating":7.32,"distinct_type":"Top","rt":null,"stimulus":"Stimuli_Rocks480/I_Obsidian_05.png","response":null,"trial_type":"image-keyboard-response","trial_index":87,"plugin_version":"2.1.0","time_elapsed":172393,"subject_id":"88571","group":"Group1","full_date":"2025-12-04T17:05:36.484Z","date":"2025-12-04","time":"17:05:36"},{"rt":null,"stimulus":"<p style=\"font-size: 50px; margin: 0; text-align: center;\">+</p>","response":null,"trial_type":"html-keyboard-response","trial_index":88,"plugin_version":"2.1.0","time_elapsed":173396,"subject_id":"88571","group":"Group1","full_date":"2025-12-04T17:05:36.484Z","date":"2025-12-04","time":"17:05:36"},{"task":"memory_phase","broad_category":"I","image_png":"I_Diorite_03.png","image_id":35,"category_name":"Diorite","category":3,"distinct_rating":3.14,"distinct_type":"Bottom","rt":null,"stimulus":"Stimuli_Rocks480/I_Diorite_03.png","response":null,"trial_type":"image-keyboard-response","trial_index":89,"plugin_version":"2.1.0","time_elapsed":175899,"subject_id":"88571","group":"Group1","full_date":"2025-12-04T17:05:36.484Z","date":"2025-12-04","time":"17:05:36"},{"rt":null,"stimulus":"<p style=\"font-size: 50px; margin: 0; text-align: center;\">+</p>","response":null,"trial_type":"html-keyboard-response","trial_index":90,"plugin_version":"2.1.0","time_elapsed":176902,"subject_id":"88571","group":"Group1","full_date":"2025-12-04T17:05:36.484Z","date":"2025-12-04","time":"17:05:36"},{"task":"memory_phase","broad_category":"M","image_png":"M_Phyllite_03.png","image_id":259,"category_name":"Phyllite","category":17,"distinct_rating":2.5,"distinct_type":"Bottom","rt":null,"stimulus":"Stimuli_Rocks480/M_Phyllite_03.png","response":null,"trial_type":"image-keyboard-response","trial_index":91,"plugin_version":"2.1.0","time_elapsed":179405,"subject_id":"88571","group":"Group1","full_date":"2025-12-04T17:05:36.484Z","date":"2025-12-04","time":"17:05:36"},{"rt":null,"stimulus":"<p style=\"font-size: 50px; margin: 0; text-align: center;\">+</p>","response":null,"trial_type":"html-keyboard-response","trial_index":92,"plugin_version":"2.1.0","time_elapsed":180408,"subject_id":"88571","group":"Group1","full_date":"2025-12-04T17:05:36.484Z","date":"2025-12-04","time":"17:05:36"},{"task":"memory_phase","broad_category":"I","image_png":"I_Basalt_09.png","image_id":25,"category_name":"Basalt","category":2,"distinct_rating":1.89,"distinct_type":"Bottom","rt":null,"stimulus":"Stimuli_Rocks480/I_Basalt_09.png","response":null,"trial_type":"image-keyboard-response","trial_index":93,"plugin_version":"2.1.0","time_elapsed":182911,"subject_id":"88571","group":"Group1","full_date":"2025-12-04T17:05:36.484Z","date":"2025-12-04","time":"17:05:36"},{"rt":null,"stimulus":"<p style=\"font-size: 50px; margin: 0; text-align: center;\">+</p>","response":null,"trial_type":"html-keyboard-response","trial_index":94,"plugin_version":"2.1.0","time_elapsed":183914,"subject_id":"88571","group":"Group1","full_date":"2025-12-04T17:05:36.484Z","date":"2025-12-04","time":"17:05:36"},{"task":"memory_phase","broad_category":"M","image_png":"M_Slate_03.png","image_id":307,"category_name":"Slate","category":20,"distinct_rating":1.87,"distinct_type":"Bottom","rt":null,"stimulus":"Stimuli_Rocks480/M_Slate_03.png","response":null,"trial_type":"image-keyboard-response","trial_index":95,"plugin_version":"2.1.0","time_elapsed":186417,"subject_id":"88571","group":"Group1","full_date":"2025-12-04T17:05:36.484Z","date":"2025-12-04","time":"17:05:36"},{"rt":null,"stimulus":"<p style=\"font-size: 50px; margin: 0; text-align: center;\">+</p>","response":null,"trial_type":"html-keyboard-response","trial_index":96,"plugin_version":"2.1.0","time_elapsed":187419,"subject_id":"88571","group":"Group1","full_date":"2025-12-04T17:05:36.484Z","date":"2025-12-04","time":"17:05:36"},{"task":"memory_phase","broad_category":"S","image_png":"S_Shale_08.png","image_id":472,"category_name":"Shale","category":30,"distinct_rating":2.55,"distinct_type":"Bottom","rt":null,"stimulus":"Stimuli_Rocks480/S_Shale_08.png","response":null,"trial_type":"image-keyboard-response","trial_index":97,"plugin_version":"2.1.0","time_elapsed":189923,"subject_id":"88571","group":"Group1","full_date":"2025-12-04T17:05:36.484Z","date":"2025-12-04","time":"17:05:36"},{"rt":null,"stimulus":"<p style=\"font-size: 50px; margin: 0; text-align: center;\">+</p>","response":null,"trial_type":"html-keyboard-response","trial_index":98,"plugin_version":"2.1.0","time_elapsed":190925,"subject_id":"88571","group":"Group1","full_date":"2025-12-04T17:05:36.484Z","date":"2025-12-04","time":"17:05:36"},{"task":"memory_phase","broad_category":"S","image_png":"S_Rock Salt_01.png","image_id":433,"category_name":"Rock Salt","category":28,"distinct_rating":7.18,"distinct_type":"Top","rt":null,"stimulus":"Stimuli_Rocks480/S_Rock Salt_01.png","response":null,"trial_type":"image-keyboard-response","trial_index":99,"plugin_version":"2.1.0","time_elapsed":193429,"subject_id":"88571","group":"Group1","full_date":"2025-12-04T17:05:36.484Z","date":"2025-12-04","time":"17:05:36"},{"rt":null,"stimulus":"<p style=\"font-size: 50px; margin: 0; text-align: center;\">+</p>","response":null,"trial_type":"html-keyboard-response","trial_index":100,"plugin_version":"2.1.0","time_elapsed":194432,"subject_id":"88571","group":"Group1","full_date":"2025-12-04T17:05:36.484Z","date":"2025-12-04","time":"17:05:36"},{"task":"memory_phase","broad_category":"I","image_png":"I_Pumice_11.png","image_id":139,"category_name":"Pumice","category":9,"distinct_rating":1.74,"distinct_type":"Bottom","rt":null,"stimulus":"Stimuli_Rocks480/I_Pumice_11.png","response":null,"trial_type":"image-keyboard-response","trial_index":101,"plugin_version":"2.1.0","time_elapsed":196935,"subject_id":"88571","group":"Group1","full_date":"2025-12-04T17:05:36.484Z","date":"2025-12-04","time":"17:05:36"},{"rt":null,"stimulus":"<p style=\"font-size: 50px; margin: 0; text-align: center;\">+</p>","response":null,"trial_type":"html-keyboard-response","trial_index":102,"plugin_version":"2.1.0","time_elapsed":197938,"subject_id":"88571","group":"Group1","full_date":"2025-12-04T17:05:36.484Z","date":"2025-12-04","time":"17:05:36"},{"task":"memory_phase","broad_category":"S","image_png":"S_Conglomerate_05.png","image_id":373,"category_name":"Conglomerate","category":24,"distinct_rating":7.32,"distinct_type":"Top","rt":null,"stimulus":"Stimuli_Rocks480/S_Conglomerate_05.png","response":null,"trial_type":"image-keyboard-response","trial_index":103,"plugin_version":"2.1.0","time_elapsed":200441,"subject_id":"88571","group":"Group1","full_date":"2025-12-04T17:05:36.484Z","date":"2025-12-04","time":"17:05:36"},{"rt":null,"stimulus":"<p style=\"font-size: 50px; margin: 0; text-align: center;\">+</p>","response":null,"trial_type":"html-keyboard-response","trial_index":104,"plugin_version":"2.1.0","time_elapsed":201443,"subject_id":"88571","group":"Group1","full_date":"2025-12-04T17:05:36.484Z","date":"2025-12-04","time":"17:05:36"},{"task":"memory_phase","broad_category":"M","image_png":"M_Marble_06.png","image_id":230,"category_name":"Marble","category":15,"distinct_rating":3.4,"distinct_type":"Bottom","rt":null,"stimulus":"Stimuli_Rocks480/M_Marble_06.png","response":null,"trial_type":"image-keyboard-response","trial_index":105,"plugin_version":"2.1.0","time_elapsed":203947,"subject_id":"88571","group":"Group1","full_date":"2025-12-04T17:05:36.484Z","date":"2025-12-04","time":"17:05:36"},{"rt":6330,"stimulus":"<p style=\"max-width: 760px; margin: auto; font-size: 35px; line-height: 1.5;\">You have completed 1 study phase. Now, we'll show you all the images again 2 more times.<br><br>Press SPACE to continue</p>","response":" ","trial_type":"html-keyboard-response","trial_index":106,"plugin_version":"2.1.0","time_elapsed":210278,"subject_id":"88571","group":"Group1","full_date":"2025-12-04T17:05:36.484Z","date":"2025-12-04","time":"17:05:36"},{"rt":null,"stimulus":"<p style=\"font-size: 50px; margin: 0; text-align: center;\">+</p>","response":null,"trial_type":"html-keyboard-response","trial_index":107,"plugin_version":"2.1.0","time_elapsed":211280,"subject_id":"88571","group":"Group1","full_date":"2025-12-04T17:05:36.484Z","date":"2025-12-04","time":"17:05:36"},{"task":"memory_phase","broad_category":"S","image_png":"S_Rock Gypsum_04.png","image_id":420,"category_name":"Rock Gypsum","category":27,"distinct_rating":7.61,"distinct_type":"Top","rt":null,"stimulus":"Stimuli_Rocks480/S_Rock Gypsum_04.png","response":null,"trial_type":"image-keyboard-response","trial_index":108,"plugin_version":"2.1.0","time_elapsed":213784,"subject_id":"88571","group":"Group1","full_date":"2025-12-04T17:05:36.484Z","date":"2025-12-04","time":"17:05:36"},{"rt":null,"stimulus":"<p style=\"font-size: 50px; margin: 0; text-align: center;\">+</p>","response":null,"trial_type":"html-keyboard-response","trial_index":109,"plugin_version":"2.1.0","time_elapsed":214786,"subject_id":"88571","group":"Group1","full_date":"2025-12-04T17:05:36.484Z","date":"2025-12-04","time":"17:05:36"},{"task":"memory_phase","broad_category":"I","image_png":"I_Gabbro_11.png","image_id":59,"category_name":"Gabbro","category":4,"distinct_rating":1.99,"distinct_type":"Bottom","rt":null,"stimulus":"Stimuli_Rocks480/I_Gabbro_11.png","response":null,"trial_type":"image-keyboard-response","trial_index":110,"plugin_version":"2.1.0","time_elapsed":217289,"subject_id":"88571","group":"Group1","full_date":"2025-12-04T17:05:36.484Z","date":"2025-12-04","time":"17:05:36"},{"rt":null,"stimulus":"<p style=\"font-size: 50px; margin: 0; text-align: center;\">+</p>","response":null,"trial_type":"html-keyboard-response","trial_index":111,"plugin_version":"2.1.0","time_elapsed":218291,"subject_id":"88571","group":"Group1","full_date":"2025-12-04T17:05:36.484Z","date":"2025-12-04","time":"17:05:36"},{"task":"memory_phase","broad_category":"I","image_png":"I_Basalt_01.png","image_id":17,"category_name":"Basalt","category":2,"distinct_rating":1.92,"distinct_type":"Bottom","rt":null,"stimulus":"Stimuli_Rocks480/I_Basalt_01.png","response":null,"trial_type":"image-keyboard-response","trial_index":112,"plugin_version":"2.1.0","time_elapsed":220795,"subject_id":"88571","group":"Group1","full_date":"2025-12-04T17:05:36.484Z","date":"2025-12-04","time":"17:05:36"},{"rt":null,"stimulus":"<p style=\"font-size: 50px; margin: 0; text-align: center;\">+</p>","response":null,"trial_type":"html-keyboard-response","trial_index":113,"plugin_version":"2.1.0","time_elapsed":221798,"subject_id":"88571","group":"Group1","full_date":"2025-12-04T17:05:36.484Z","date":"2025-12-04","time":"17:05:36"},{"task":"memory_phase","broad_category":"S","image_png":"S_Rock Salt_01.png","image_id":433,"category_name":"Rock Salt","category":28,"distinct_rating":7.18,"distinct_type":"Top","rt":null,"stimulus":"Stimuli_Rocks480/S_Rock Salt_01.png","response":null,"trial_type":"image-keyboard-response","trial_index":114,"plugin_version":"2.1.0","time_elapsed":224301,"subject_id":"88571","group":"Group1","full_date":"2025-12-04T17:05:36.484Z","date":"2025-12-04","time":"17:05:36"},{"rt":null,"stimulus":"<p style=\"font-size: 50px; margin: 0; text-align: center;\">+</p>","response":null,"trial_type":"html-keyboard-response","trial_index":115,"plugin_version":"2.1.0","time_elapsed":225303,"subject_id":"88571","group":"Group1","full_date":"2025-12-04T17:05:36.484Z","date":"2025-12-04","time":"17:05:36"},{"task":"memory_phase","broad_category":"M","image_png":"M_Gneiss_13.png","image_id":205,"category_name":"Gneiss","category":13,"distinct_rating":3.26,"distinct_type":"Bottom","rt":null,"stimulus":"Stimuli_Rocks480/M_Gneiss_13.png","response":null,"trial_type":"image-keyboard-response","trial_index":116,"plugin_version":"2.1.0","time_elapsed":227807,"subject_id":"88571","group":"Group1","full_date":"2025-12-04T17:05:36.484Z","date":"2025-12-04","time":"17:05:36"},{"rt":null,"stimulus":"<p style=\"font-size: 50px; margin: 0; text-align: center;\">+</p>","response":null,"trial_type":"html-keyboard-response","trial_index":117,"plugin_version":"2.1.0","time_elapsed":228809,"subject_id":"88571","group":"Group1","full_date":"2025-12-04T17:05:36.484Z","date":"2025-12-04","time":"17:05:36"},{"task":"memory_phase","broad_category":"I","image_png":"I_Andesite_06.png","image_id":6,"category_name":"Andesite","category":1,"distinct_rating":3.17,"distinct_type":"Bottom","rt":null,"stimulus":"Stimuli_Rocks480/I_Andesite_06.png","response":null,"trial_type":"image-keyboard-response","trial_index":118,"plugin_version":"2.1.0","time_elapsed":231313,"subject_id":"88571","group":"Group1","full_date":"2025-12-04T17:05:36.484Z","date":"2025-12-04","time":"17:05:36"},{"rt":null,"stimulus":"<p style=\"font-size: 50px; margin: 0; text-align: center;\">+</p>","response":null,"trial_type":"html-keyboard-response","trial_index":119,"plugin_version":"2.1.0","time_elapsed":232315,"subject_id":"88571","group":"Group1","full_date":"2025-12-04T17:05:36.484Z","date":"2025-12-04","time":"17:05:36"},{"task":"memory_phase","broad_category":"M","image_png":"M_Quartzite_05.png","image_id":277,"category_name":"Quartzite","category":18,"distinct_rating":2.23,"distinct_type":"Bottom","rt":null,"stimulus":"Stimuli_Rocks480/M_Quartzite_05.png","response":null,"trial_type":"image-keyboard-response","trial_index":120,"plugin_version":"2.1.0","time_elapsed":234818,"subject_id":"88571","group":"Group1","full_date":"2025-12-04T17:05:36.484Z","date":"2025-12-04","time":"17:05:36"},{"rt":null,"stimulus":"<p style=\"font-size: 50px; margin: 0; text-align: center;\">+</p>","response":null,"trial_type":"html-keyboard-response","trial_index":121,"plugin_version":"2.1.0","time_elapsed":235821,"subject_id":"88571","group":"Group1","full_date":"2025-12-04T17:05:36.484Z","date":"2025-12-04","time":"17:05:36"},{"task":"memory_phase","broad_category":"I","image_png":"I_Andesite_10.png","image_id":10,"category_name":"Andesite","category":1,"distinct_rating":3.15,"distinct_type":"Bottom","rt":null,"stimulus":"Stimuli_Rocks480/I_Andesite_10.png","response":null,"trial_type":"image-keyboard-response","trial_index":122,"plugin_version":"2.1.0","time_elapsed":238324,"subject_id":"88571","group":"Group1","full_date":"2025-12-04T17:05:36.484Z","date":"2025-12-04","time":"17:05:36"},{"rt":null,"stimulus":"<p style=\"font-size: 50px; margin: 0; text-align: center;\">+</p>","response":null,"trial_type":"html-keyboard-response","trial_index":123,"plugin_version":"2.1.0","time_elapsed":239327,"subject_id":"88571","group":"Group1","full_date":"2025-12-04T17:05:36.484Z","date":"2025-12-04","time":"17:05:36"},{"task":"memory_phase","broad_category":"S","image_png":"S_Breccia_11.png","image_id":347,"category_name":"Breccia","category":22,"distinct_rating":6.7,"distinct_type":"Top","rt":null,"stimulus":"Stimuli_Rocks480/S_Breccia_11.png","response":null,"trial_type":"image-keyboard-response","trial_index":124,"plugin_version":"2.1.0","time_elapsed":241830,"subject_id":"88571","group":"Group1","full_date":"2025-12-04T17:05:36.484Z","date":"2025-12-04","time":"17:05:36"},{"rt":null,"stimulus":"<p style=\"font-size: 50px; margin: 0; text-align: center;\">+</p>","response":null,"trial_type":"html-keyboard-response","trial_index":125,"plugin_version":"2.1.0","time_elapsed":242833,"subject_id":"88571","group":"Group1","full_date":"2025-12-04T17:05:36.484Z","date":"2025-12-04","time":"17:05:36"},{"task":"memory_phase","broad_category":"S","image_png":"S_Chert_10.png","image_id":362,"category_name":"Chert","category":23,"distinct_rating":7.17,"distinct_type":"Top","rt":null,"stimulus":"Stimuli_Rocks480/S_Chert_10.png","response":null,"trial_type":"image-keyboard-response","trial_index":126,"plugin_version":"2.1.0","time_elapsed":245337,"subject_id":"88571","group":"Group1","full_date":"2025-12-04T17:05:36.484Z","date":"2025-12-04","time":"17:05:36"},{"rt":null,"stimulus":"<p style=\"font-size: 50px; margin: 0; text-align: center;\">+</p>","response":null,"trial_type":"html-keyboard-response","trial_index":127,"plugin_version":"2.1.0","time_elapsed":246339,"subject_id":"88571","group":"Group1","full_date":"2025-12-04T17:05:36.484Z","date":"2025-12-04","time":"17:05:36"},{"task":"memory_phase","broad_category":"I","image_png":"I_Andesite_08.png","image_id":8,"category_name":"Andesite","category":1,"distinct_rating":1.95,"distinct_type":"Bottom","rt":null,"stimulus":"Stimuli_Rocks480/I_Andesite_08.png","response":null,"trial_type":"image-keyboard-response","trial_index":128,"plugin_version":"2.1.0","time_elapsed":248842,"subject_id":"88571","group":"Group1","full_date":"2025-12-04T17:05:36.484Z","date":"2025-12-04","time":"17:05:36"},{"rt":null,"stimulus":"<p style=\"font-size: 50px; margin: 0; text-align: center;\">+</p>","response":null,"trial_type":"html-keyboard-response","trial_index":129,"plugin_version":"2.1.0","time_elapsed":249845,"subject_id":"88571","group":"Group1","full_date":"2025-12-04T17:05:36.484Z","date":"2025-12-04","time":"17:05:36"},{"task":"memory_phase","broad_category":"M","image_png":"M_Marble_16.png","image_id":240,"category_name":"Marble","category":15,"distinct_rating":2.57,"distinct_type":"Bottom","rt":null,"stimulus":"Stimuli_Rocks480/M_Marble_16.png","response":null,"trial_type":"image-keyboard-response","trial_index":130,"plugin_version":"2.1.0","time_elapsed":252349,"subject_id":"88571","group":"Group1","full_date":"2025-12-04T17:05:36.484Z","date":"2025-12-04","time":"17:05:36"},{"rt":null,"stimulus":"<p style=\"font-size: 50px; margin: 0; text-align: center;\">+</p>","response":null,"trial_type":"html-keyboard-response","trial_index":131,"plugin_version":"2.1.0","time_elapsed":253352,"subject_id":"88571","group":"Group1","full_date":"2025-12-04T17:05:36.484Z","date":"2025-12-04","time":"17:05:36"},{"task":"memory_phase","broad_category":"M","image_png":"M_Marble_04.png","image_id":228,"category_name":"Marble","category":15,"distinct_rating":3.15,"distinct_type":"Bottom","rt":null,"stimulus":"Stimuli_Rocks480/M_Marble_04.png","response":null,"trial_type":"image-keyboard-response","trial_index":132,"plugin_version":"2.1.0","time_elapsed":255855,"subject_id":"88571","group":"Group1","full_date":"2025-12-04T17:05:36.484Z","date":"2025-12-04","time":"17:05:36"},{"rt":null,"stimulus":"<p style=\"font-size: 50px; margin: 0; text-align: center;\">+</p>","response":null,"trial_type":"html-keyboard-response","trial_index":133,"plugin_version":"2.1.0","time_elapsed":256858,"subject_id":"88571","group":"Group1","full_date":"2025-12-04T17:05:36.484Z","date":"2025-12-04","time":"17:05:36"},{"task":"memory_phase","broad_category":"S","image_png":"S_Shale_12.png","image_id":476,"category_name":"Shale","category":30,"distinct_rating":2.48,"distinct_type":"Bottom","rt":null,"stimulus":"Stimuli_Rocks480/S_Shale_12.png","response":null,"trial_type":"image-keyboard-response","trial_index":134,"plugin_version":"2.1.0","time_elapsed":259361,"subject_id":"88571","group":"Group1","full_date":"2025-12-04T17:05:36.484Z","date":"2025-12-04","time":"17:05:36"},{"rt":null,"stimulus":"<p style=\"font-size: 50px; margin: 0; text-align: center;\">+</p>","response":null,"trial_type":"html-keyboard-response","trial_index":135,"plugin_version":"2.1.0","time_elapsed":260363,"subject_id":"88571","group":"Group1","full_date":"2025-12-04T17:05:36.484Z","date":"2025-12-04","time":"17:05:36"},{"task":"memory_phase","broad_category":"S","image_png":"S_Sandstone_16.png","image_id":464,"category_name":"Sandstone","category":29,"distinct_rating":1.93,"distinct_type":"Bottom","rt":null,"stimulus":"Stimuli_Rocks480/S_Sandstone_16.png","response":null,"trial_type":"image-keyboard-response","trial_index":136,"plugin_version":"2.1.0","time_elapsed":262865,"subject_id":"88571","group":"Group1","full_date":"2025-12-04T17:05:36.484Z","date":"2025-12-04","time":"17:05:36"},{"rt":null,"stimulus":"<p style=\"font-size: 50px; margin: 0; text-align: center;\">+</p>","response":null,"trial_type":"html-keyboard-response","trial_index":137,"plugin_version":"2.1.0","time_elapsed":263868,"subject_id":"88571","group":"Group1","full_date":"2025-12-04T17:05:36.484Z","date":"2025-12-04","time":"17:05:36"},{"task":"memory_phase","broad_category":"I","image_png":"I_Basalt_02.png","image_id":18,"category_name":"Basalt","category":2,"distinct_rating":1.84,"distinct_type":"Bottom","rt":null,"stimulus":"Stimuli_Rocks480/I_Basalt_02.png","response":null,"trial_type":"image-keyboard-response","trial_index":138,"plugin_version":"2.1.0","time_elapsed":266371,"subject_id":"88571","group":"Group1","full_date":"2025-12-04T17:05:36.484Z","date":"2025-12-04","time":"17:05:36"},{"rt":null,"stimulus":"<p style=\"font-size: 50px; margin: 0; text-align: center;\">+</p>","response":null,"trial_type":"html-keyboard-response","trial_index":139,"plugin_version":"2.1.0","time_elapsed":267374,"subject_id":"88571","group":"Group1","full_date":"2025-12-04T17:05:36.484Z","date":"2025-12-04","time":"17:05:36"},{"task":"memory_phase","broad_category":"I","image_png":"I_Rhyolite_11.png","image_id":155,"category_name":"Rhyolite","category":10,"distinct_rating":1.73,"distinct_type":"Bottom","rt":null,"stimulus":"Stimuli_Rocks480/I_Rhyolite_11.png","response":null,"trial_type":"image-keyboard-response","trial_index":140,"plugin_version":"2.1.0","time_elapsed":269878,"subject_id":"88571","group":"Group1","full_date":"2025-12-04T17:05:36.484Z","date":"2025-12-04","time":"17:05:36"},{"rt":null,"stimulus":"<p style=\"font-size: 50px; margin: 0; text-align: center;\">+</p>","response":null,"trial_type":"html-keyboard-response","trial_index":141,"plugin_version":"2.1.0","time_elapsed":270880,"subject_id":"88571","group":"Group1","full_date":"2025-12-04T17:05:36.484Z","date":"2025-12-04","time":"17:05:36"},{"task":"memory_phase","broad_category":"M","image_png":"M_Gneiss_05.png","image_id":197,"category_name":"Gneiss","category":13,"distinct_rating":2.97,"distinct_type":"Bottom","rt":null,"stimulus":"Stimuli_Rocks480/M_Gneiss_05.png","response":null,"trial_type":"image-keyboard-response","trial_index":142,"plugin_version":"2.1.0","time_elapsed":273384,"subject_id":"88571","group":"Group1","full_date":"2025-12-04T17:05:36.484Z","date":"2025-12-04","time":"17:05:36"},{"rt":null,"stimulus":"<p style=\"font-size: 50px; margin: 0; text-align: center;\">+</p>","response":null,"trial_type":"html-keyboard-response","trial_index":143,"plugin_version":"2.1.0","time_elapsed":274387,"subject_id":"88571","group":"Group1","full_date":"2025-12-04T17:05:36.484Z","date":"2025-12-04","time":"17:05:36"},{"task":"memory_phase","broad_category":"M","image_png":"M_Slate_15.png","image_id":319,"category_name":"Slate","category":20,"distinct_rating":2.13,"distinct_type":"Bottom","rt":null,"stimulus":"Stimuli_Rocks480/M_Slate_15.png","response":null,"trial_type":"image-keyboard-response","trial_index":144,"plugin_version":"2.1.0","time_elapsed":276889,"subject_id":"88571","group":"Group1","full_date":"2025-12-04T17:05:36.484Z","date":"2025-12-04","time":"17:05:36"},{"rt":null,"stimulus":"<p style=\"font-size: 50px; margin: 0; text-align: center;\">+</p>","response":null,"trial_type":"html-keyboard-response","trial_index":145,"plugin_version":"2.1.0","time_elapsed":277891,"subject_id":"88571","group":"Group1","full_date":"2025-12-04T17:05:36.484Z","date":"2025-12-04","time":"17:05:36"},{"task":"memory_phase","broad_category":"M","image_png":"M_Quartzite_08.png","image_id":280,"category_name":"Quartzite","category":18,"distinct_rating":2.15,"distinct_type":"Bottom","rt":null,"stimulus":"Stimuli_Rocks480/M_Quartzite_08.png","response":null,"trial_type":"image-keyboard-response","trial_index":146,"plugin_version":"2.1.0","time_elapsed":280395,"subject_id":"88571","group":"Group1","full_date":"2025-12-04T17:05:36.484Z","date":"2025-12-04","time":"17:05:36"},{"rt":null,"stimulus":"<p style=\"font-size: 50px; margin: 0; text-align: center;\">+</p>","response":null,"trial_type":"html-keyboard-response","trial_index":147,"plugin_version":"2.1.0","time_elapsed":281397,"subject_id":"88571","group":"Group1","full_date":"2025-12-04T17:05:36.484Z","date":"2025-12-04","time":"17:05:36"},{"task":"memory_phase","broad_category":"I","image_png":"I_Diorite_05.png","image_id":37,"category_name":"Diorite","category":3,"distinct_rating":3.08,"distinct_type":"Bottom","rt":null,"stimulus":"Stimuli_Rocks480/I_Diorite_05.png","response":null,"trial_type":"image-keyboard-response","trial_index":148,"plugin_version":"2.1.0","time_elapsed":283901,"subject_id":"88571","group":"Group1","full_date":"2025-12-04T17:05:36.484Z","date":"2025-12-04","time":"17:05:36"},{"rt":null,"stimulus":"<p style=\"font-size: 50px; margin: 0; text-align: center;\">+</p>","response":null,"trial_type":"html-keyboard-response","trial_index":149,"plugin_version":"2.1.0","time_elapsed":284904,"subject_id":"88571","group":"Group1","full_date":"2025-12-04T17:05:36.484Z","date":"2025-12-04","time":"17:05:36"},{"task":"memory_phase","broad_category":"M","image_png":"M_Quartzite_13.png","image_id":285,"category_name":"Quartzite","category":18,"distinct_rating":2.27,"distinct_type":"Bottom","rt":null,"stimulus":"Stimuli_Rocks480/M_Quartzite_13.png","response":null,"trial_type":"image-keyboard-response","trial_index":150,"plugin_version":"2.1.0","time_elapsed":287407,"subject_id":"88571","group":"Group1","full_date":"2025-12-04T17:05:36.484Z","date":"2025-12-04","time":"17:05:36"},{"rt":null,"stimulus":"<p style=\"font-size: 50px; margin: 0; text-align: center;\">+</p>","response":null,"trial_type":"html-keyboard-response","trial_index":151,"plugin_version":"2.1.0","time_elapsed":288410,"subject_id":"88571","group":"Group1","full_date":"2025-12-04T17:05:36.484Z","date":"2025-12-04","time":"17:05:36"},{"task":"memory_phase","broad_category":"M","image_png":"M_Phyllite_10.png","image_id":266,"category_name":"Phyllite","category":17,"distinct_rating":2.6,"distinct_type":"Bottom","rt":null,"stimulus":"Stimuli_Rocks480/M_Phyllite_10.png","response":null,"trial_type":"image-keyboard-response","trial_index":152,"plugin_version":"2.1.0","time_elapsed":290913,"subject_id":"88571","group":"Group1","full_date":"2025-12-04T17:05:36.484Z","date":"2025-12-04","time":"17:05:36"},{"rt":null,"stimulus":"<p style=\"font-size: 50px; margin: 0; text-align: center;\">+</p>","response":null,"trial_type":"html-keyboard-response","trial_index":153,"plugin_version":"2.1.0","time_elapsed":291915,"subject_id":"88571","group":"Group1","full_date":"2025-12-04T17:05:36.484Z","date":"2025-12-04","time":"17:05:36"},{"task":"memory_phase","broad_category":"I","image_png":"I_Pumice_08.png","image_id":136,"category_name":"Pumice","category":9,"distinct_rating":3.1,"distinct_type":"Bottom","rt":null,"stimulus":"Stimuli_Rocks480/I_Pumice_08.png","response":null,"trial_type":"image-keyboard-response","trial_index":154,"plugin_version":"2.1.0","time_elapsed":294419,"subject_id":"88571","group":"Group1","full_date":"2025-12-04T17:05:36.484Z","date":"2025-12-04","time":"17:05:36"},{"rt":null,"stimulus":"<p style=\"font-size: 50px; margin: 0; text-align: center;\">+</p>","response":null,"trial_type":"html-keyboard-response","trial_index":155,"plugin_version":"2.1.0","time_elapsed":295421,"subject_id":"88571","group":"Group1","full_date":"2025-12-04T17:05:36.484Z","date":"2025-12-04","time":"17:05:36"},{"task":"memory_phase","broad_category":"I","image_png":"I_Pumice_11.png","image_id":139,"category_name":"Pumice","category":9,"distinct_rating":1.74,"distinct_type":"Bottom","rt":null,"stimulus":"Stimuli_Rocks480/I_Pumice_11.png","response":null,"trial_type":"image-keyboard-response","trial_index":156,"plugin_version":"2.1.0","time_elapsed":297925,"subject_id":"88571","group":"Group1","full_date":"2025-12-04T17:05:36.484Z","date":"2025-12-04","time":"17:05:36"},{"rt":1984,"stimulus":"<p style=\"max-width: 760px; margin: auto; font-size: 35px; line-height: 1.5;\">Press SPACE to continue study phase</p>","response":" ","trial_type":"html-keyboard-response","trial_index":157,"plugin_version":"2.1.0","time_elapsed":299910,"subject_id":"88571","group":"Group1","full_date":"2025-12-04T17:05:36.484Z","date":"2025-12-04","time":"17:05:36"},{"rt":null,"stimulus":"<p style=\"font-size: 50px; margin: 0; text-align: center;\">+</p>","response":null,"trial_type":"html-keyboard-response","trial_index":158,"plugin_version":"2.1.0","time_elapsed":300912,"subject_id":"88571","group":"Group1","full_date":"2025-12-04T17:05:36.484Z","date":"2025-12-04","time":"17:05:36"},{"task":"memory_phase","broad_category":"I","image_png":"I_Gabbro_08.png","image_id":56,"category_name":"Gabbro","category":4,"distinct_rating":3.02,"distinct_type":"Bottom","rt":null,"stimulus":"Stimuli_Rocks480/I_Gabbro_08.png","response":null,"trial_type":"image-keyboard-response","trial_index":159,"plugin_version":"2.1.0","time_elapsed":303416,"subject_id":"88571","group":"Group1","full_date":"2025-12-04T17:05:36.484Z","date":"2025-12-04","time":"17:05:36"},{"rt":null,"stimulus":"<p style=\"font-size: 50px; margin: 0; text-align: center;\">+</p>","response":null,"trial_type":"html-keyboard-response","trial_index":160,"plugin_version":"2.1.0","time_elapsed":304418,"subject_id":"88571","group":"Group1","full_date":"2025-12-04T17:05:36.484Z","date":"2025-12-04","time":"17:05:36"},{"task":"memory_phase","broad_category":"M","image_png":"M_Slate_11.png","image_id":315,"category_name":"Slate","category":20,"distinct_rating":2.75,"distinct_type":"Bottom","rt":null,"stimulus":"Stimuli_Rocks480/M_Slate_11.png","response":null,"trial_type":"image-keyboard-response","trial_index":161,"plugin_version":"2.1.0","time_elapsed":306922,"subject_id":"88571","group":"Group1","full_date":"2025-12-04T17:05:36.484Z","date":"2025-12-04","time":"17:05:36"},{"rt":null,"stimulus":"<p style=\"font-size: 50px; margin: 0; text-align: center;\">+</p>","response":null,"trial_type":"html-keyboard-response","trial_index":162,"plugin_version":"2.1.0","time_elapsed":307924,"subject_id":"88571","group":"Group1","full_date":"2025-12-04T17:05:36.484Z","date":"2025-12-04","time":"17:05:36"},{"task":"memory_phase","broad_category":"I","image_png":"I_Gabbro_16.png","image_id":64,"category_name":"Gabbro","category":4,"distinct_rating":2.52,"distinct_type":"Bottom","rt":null,"stimulus":"Stimuli_Rocks480/I_Gabbro_16.png","response":null,"trial_type":"image-keyboard-response","trial_index":163,"plugin_version":"2.1.0","time_elapsed":310427,"subject_id":"88571","group":"Group1","full_date":"2025-12-04T17:05:36.484Z","date":"2025-12-04","time":"17:05:36"},{"rt":null,"stimulus":"<p style=\"font-size: 50px; margin: 0; text-align: center;\">+</p>","response":null,"trial_type":"html-keyboard-response","trial_index":164,"plugin_version":"2.1.0","time_elapsed":311430,"subject_id":"88571","group":"Group1","full_date":"2025-12-04T17:05:36.484Z","date":"2025-12-04","time":"17:05:36"},{"task":"memory_phase","broad_category":"I","image_png":"I_Pumice_12.png","image_id":140,"category_name":"Pumice","category":9,"distinct_rating":2.97,"distinct_type":"Bottom","rt":null,"stimulus":"Stimuli_Rocks480/I_Pumice_12.png","response":null,"trial_type":"image-keyboard-response","trial_index":165,"plugin_version":"2.1.0","time_elapsed":313933,"subject_id":"88571","group":"Group1","full_date":"2025-12-04T17:05:36.484Z","date":"2025-12-04","time":"17:05:36"},{"rt":null,"stimulus":"<p style=\"font-size: 50px; margin: 0; text-align: center;\">+</p>","response":null,"trial_type":"html-keyboard-response","trial_index":166,"plugin_version":"2.1.0","time_elapsed":314935,"subject_id":"88571","group":"Group1","full_date":"2025-12-04T17:05:36.484Z","date":"2025-12-04","time":"17:05:36"},{"task":"memory_phase","broad_category":"S","image_png":"S_Sandstone_03.png","image_id":451,"category_name":"Sandstone","category":29,"distinct_rating":1.86,"distinct_type":"Bottom","rt":null,"stimulus":"Stimuli_Rocks480/S_Sandstone_03.png","response":null,"trial_type":"image-keyboard-response","trial_index":167,"plugin_version":"2.1.0","time_elapsed":317437,"subject_id":"88571","group":"Group1","full_date":"2025-12-04T17:05:36.484Z","date":"2025-12-04","time":"17:05:36"},{"rt":null,"stimulus":"<p style=\"font-size: 50px; margin: 0; text-align: center;\">+</p>","response":null,"trial_type":"html-keyboard-response","trial_index":168,"plugin_version":"2.1.0","time_elapsed":318440,"subject_id":"88571","group":"Group1","full_date":"2025-12-04T17:05:36.484Z","date":"2025-12-04","time":"17:05:36"},{"task":"memory_phase","broad_category":"M","image_png":"M_Phyllite_03.png","image_id":259,"category_name":"Phyllite","category":17,"distinct_rating":2.5,"distinct_type":"Bottom","rt":null,"stimulus":"Stimuli_Rocks480/M_Phyllite_03.png","response":null,"trial_type":"image-keyboard-response","trial_index":169,"plugin_version":"2.1.0","time_elapsed":320944,"subject_id":"88571","group":"Group1","full_date":"2025-12-04T17:05:36.484Z","date":"2025-12-04","time":"17:05:36"},{"rt":null,"stimulus":"<p style=\"font-size: 50px; margin: 0; text-align: center;\">+</p>","response":null,"trial_type":"html-keyboard-response","trial_index":170,"plugin_version":"2.1.0","time_elapsed":321947,"subject_id":"88571","group":"Group1","full_date":"2025-12-04T17:05:36.484Z","date":"2025-12-04","time":"17:05:36"},{"task":"memory_phase","broad_category":"M","image_png":"M_Marble_06.png","image_id":230,"category_name":"Marble","category":15,"distinct_rating":3.4,"distinct_type":"Bottom","rt":null,"stimulus":"Stimuli_Rocks480/M_Marble_06.png","response":null,"trial_type":"image-keyboard-response","trial_index":171,"plugin_version":"2.1.0","time_elapsed":324450,"subject_id":"88571","group":"Group1","full_date":"2025-12-04T17:05:36.484Z","date":"2025-12-04","time":"17:05:36"},{"rt":null,"stimulus":"<p style=\"font-size: 50px; margin: 0; text-align: center;\">+</p>","response":null,"trial_type":"html-keyboard-response","trial_index":172,"plugin_version":"2.1.0","time_elapsed":325453,"subject_id":"88571","group":"Group1","full_date":"2025-12-04T17:05:36.484Z","date":"2025-12-04","time":"17:05:36"},{"task":"memory_phase","broad_category":"S","image_png":"S_Dolomite_14.png","image_id":398,"category_name":"Dolomite","category":25,"distinct_rating":1.43,"distinct_type":"Bottom","rt":null,"stimulus":"Stimuli_Rocks480/S_Dolomite_14.png","response":null,"trial_type":"image-keyboard-response","trial_index":173,"plugin_version":"2.1.0","time_elapsed":327956,"subject_id":"88571","group":"Group1","full_date":"2025-12-04T17:05:36.484Z","date":"2025-12-04","time":"17:05:36"},{"rt":null,"stimulus":"<p style=\"font-size: 50px; margin: 0; text-align: center;\">+</p>","response":null,"trial_type":"html-keyboard-response","trial_index":174,"plugin_version":"2.1.0","time_elapsed":328958,"subject_id":"88571","group":"Group1","full_date":"2025-12-04T17:05:36.484Z","date":"2025-12-04","time":"17:05:36"},{"task":"memory_phase","broad_category":"I","image_png":"I_Obsidian_05.png","image_id":85,"category_name":"Obsidian","category":6,"distinct_rating":7.32,"distinct_type":"Top","rt":null,"stimulus":"Stimuli_Rocks480/I_Obsidian_05.png","response":null,"trial_type":"image-keyboard-response","trial_index":175,"plugin_version":"2.1.0","time_elapsed":331462,"subject_id":"88571","group":"Group1","full_date":"2025-12-04T17:05:36.484Z","date":"2025-12-04","time":"17:05:36"},{"rt":null,"stimulus":"<p style=\"font-size: 50px; margin: 0; text-align: center;\">+</p>","response":null,"trial_type":"html-keyboard-response","trial_index":176,"plugin_version":"2.1.0","time_elapsed":332464,"subject_id":"88571","group":"Group1","full_date":"2025-12-04T17:05:36.484Z","date":"2025-12-04","time":"17:05:36"},{"task":"memory_phase","broad_category":"M","image_png":"M_Gneiss_06.png","image_id":198,"category_name":"Gneiss","category":13,"distinct_rating":2.65,"distinct_type":"Bottom","rt":null,"stimulus":"Stimuli_Rocks480/M_Gneiss_06.png","response":null,"trial_type":"image-keyboard-response","trial_index":177,"plugin_version":"2.1.0","time_elapsed":334968,"subject_id":"88571","group":"Group1","full_date":"2025-12-04T17:05:36.484Z","date":"2025-12-04","time":"17:05:36"},{"rt":null,"stimulus":"<p style=\"font-size: 50px; margin: 0; text-align: center;\">+</p>","response":null,"trial_type":"html-keyboard-response","trial_index":178,"plugin_version":"2.1.0","time_elapsed":335970,"subject_id":"88571","group":"Group1","full_date":"2025-12-04T17:05:36.484Z","date":"2025-12-04","time":"17:05:36"},{"task":"memory_phase","broad_category":"S","image_png":"S_Shale_08.png","image_id":472,"category_name":"Shale","category":30,"distinct_rating":2.55,"distinct_type":"Bottom","rt":null,"stimulus":"Stimuli_Rocks480/S_Shale_08.png","response":null,"trial_type":"image-keyboard-response","trial_index":179,"plugin_version":"2.1.0","time_elapsed":338473,"subject_id":"88571","group":"Group1","full_date":"2025-12-04T17:05:36.484Z","date":"2025-12-04","time":"17:05:36"},{"rt":null,"stimulus":"<p style=\"font-size: 50px; margin: 0; text-align: center;\">+</p>","response":null,"trial_type":"html-keyboard-response","trial_index":180,"plugin_version":"2.1.0","time_elapsed":339476,"subject_id":"88571","group":"Group1","full_date":"2025-12-04T17:05:36.484Z","date":"2025-12-04","time":"17:05:36"},{"task":"memory_phase","broad_category":"I","image_png":"I_Basalt_09.png","image_id":25,"category_name":"Basalt","category":2,"distinct_rating":1.89,"distinct_type":"Bottom","rt":null,"stimulus":"Stimuli_Rocks480/I_Basalt_09.png","response":null,"trial_type":"image-keyboard-response","trial_index":181,"plugin_version":"2.1.0","time_elapsed":341979,"subject_id":"88571","group":"Group1","full_date":"2025-12-04T17:05:36.484Z","date":"2025-12-04","time":"17:05:36"},{"rt":null,"stimulus":"<p style=\"font-size: 50px; margin: 0; text-align: center;\">+</p>","response":null,"trial_type":"html-keyboard-response","trial_index":182,"plugin_version":"2.1.0","time_elapsed":342981,"subject_id":"88571","group":"Group1","full_date":"2025-12-04T17:05:36.484Z","date":"2025-12-04","time":"17:05:36"},{"task":"memory_phase","broad_category":"I","image_png":"I_Pegmatite_10.png","image_id":106,"category_name":"Pegmatite","category":7,"distinct_rating":7.66,"distinct_type":"Top","rt":null,"stimulus":"Stimuli_Rocks480/I_Pegmatite_10.png","response":null,"trial_type":"image-keyboard-response","trial_index":183,"plugin_version":"2.1.0","time_elapsed":345484,"subject_id":"88571","group":"Group1","full_date":"2025-12-04T17:05:36.484Z","date":"2025-12-04","time":"17:05:36"},{"rt":null,"stimulus":"<p style=\"font-size: 50px; margin: 0; text-align: center;\">+</p>","response":null,"trial_type":"html-keyboard-response","trial_index":184,"plugin_version":"2.1.0","time_elapsed":346487,"subject_id":"88571","group":"Group1","full_date":"2025-12-04T17:05:36.484Z","date":"2025-12-04","time":"17:05:36"},{"task":"memory_phase","broad_category":"M","image_png":"M_Slate_03.png","image_id":307,"category_name":"Slate","category":20,"distinct_rating":1.87,"distinct_type":"Bottom","rt":null,"stimulus":"Stimuli_Rocks480/M_Slate_03.png","response":null,"trial_type":"image-keyboard-response","trial_index":185,"plugin_version":"2.1.0","time_elapsed":348990,"subject_id":"88571","group":"Group1","full_date":"2025-12-04T17:05:36.484Z","date":"2025-12-04","time":"17:05:36"},{"rt":null,"stimulus":"<p style=\"font-size: 50px; margin: 0; text-align: center;\">+</p>","response":null,"trial_type":"html-keyboard-response","trial_index":186,"plugin_version":"2.1.0","time_elapsed":349992,"subject_id":"88571","group":"Group1","full_date":"2025-12-04T17:05:36.484Z","date":"2025-12-04","time":"17:05:36"},{"task":"memory_phase","broad_category":"I","image_png":"I_Diorite_04.png","image_id":36,"category_name":"Diorite","category":3,"distinct_rating":2.98,"distinct_type":"Bottom","rt":null,"stimulus":"Stimuli_Rocks480/I_Diorite_04.png","response":null,"trial_type":"image-keyboard-response","trial_index":187,"plugin_version":"2.1.0","time_elapsed":352495,"subject_id":"88571","group":"Group1","full_date":"2025-12-04T17:05:36.484Z","date":"2025-12-04","time":"17:05:36"},{"rt":null,"stimulus":"<p style=\"font-size: 50px; margin: 0; text-align: center;\">+</p>","response":null,"trial_type":"html-keyboard-response","trial_index":188,"plugin_version":"2.1.0","time_elapsed":353498,"subject_id":"88571","group":"Group1","full_date":"2025-12-04T17:05:36.484Z","date":"2025-12-04","time":"17:05:36"},{"task":"memory_phase","broad_category":"S","image_png":"S_Sandstone_15.png","image_id":463,"category_name":"Sandstone","category":29,"distinct_rating":2,"distinct_type":"Bottom","rt":null,"stimulus":"Stimuli_Rocks480/S_Sandstone_15.png","response":null,"trial_type":"image-keyboard-response","trial_index":189,"plugin_version":"2.1.0","time_elapsed":356001,"subject_id":"88571","group":"Group1","full_date":"2025-12-04T17:05:36.484Z","date":"2025-12-04","time":"17:05:36"},{"rt":null,"stimulus":"<p style=\"font-size: 50px; margin: 0; text-align: center;\">+</p>","response":null,"trial_type":"html-keyboard-response","trial_index":190,"plugin_version":"2.1.0","time_elapsed":357003,"subject_id":"88571","group":"Group1","full_date":"2025-12-04T17:05:36.484Z","date":"2025-12-04","time":"17:05:36"},{"task":"memory_phase","broad_category":"I","image_png":"I_Rhyolite_14.png","image_id":158,"category_name":"Rhyolite","category":10,"distinct_rating":2.59,"distinct_type":"Bottom","rt":null,"stimulus":"Stimuli_Rocks480/I_Rhyolite_14.png","response":null,"trial_type":"image-keyboard-response","trial_index":191,"plugin_version":"2.1.0","time_elapsed":359507,"subject_id":"88571","group":"Group1","full_date":"2025-12-04T17:05:36.484Z","date":"2025-12-04","time":"17:05:36"},{"rt":null,"stimulus":"<p style=\"font-size: 50px; margin: 0; text-align: center;\">+</p>","response":null,"trial_type":"html-keyboard-response","trial_index":192,"plugin_version":"2.1.0","time_elapsed":360509,"subject_id":"88571","group":"Group1","full_date":"2025-12-04T17:05:36.484Z","date":"2025-12-04","time":"17:05:36"},{"task":"memory_phase","broad_category":"M","image_png":"M_Phyllite_07.png","image_id":263,"category_name":"Phyllite","category":17,"distinct_rating":2.59,"distinct_type":"Bottom","rt":null,"stimulus":"Stimuli_Rocks480/M_Phyllite_07.png","response":null,"trial_type":"image-keyboard-response","trial_index":193,"plugin_version":"2.1.0","time_elapsed":363013,"subject_id":"88571","group":"Group1","full_date":"2025-12-04T17:05:36.484Z","date":"2025-12-04","time":"17:05:36"},{"rt":null,"stimulus":"<p style=\"font-size: 50px; margin: 0; text-align: center;\">+</p>","response":null,"trial_type":"html-keyboard-response","trial_index":194,"plugin_version":"2.1.0","time_elapsed":364015,"subject_id":"88571","group":"Group1","full_date":"2025-12-04T17:05:36.484Z","date":"2025-12-04","time":"17:05:36"},{"task":"memory_phase","broad_category":"S","image_png":"S_Shale_01.png","image_id":465,"category_name":"Shale","category":30,"distinct_rating":2.7,"distinct_type":"Bottom","rt":null,"stimulus":"Stimuli_Rocks480/S_Shale_01.png","response":null,"trial_type":"image-keyboard-response","trial_index":195,"plugin_version":"2.1.0","time_elapsed":366519,"subject_id":"88571","group":"Group1","full_date":"2025-12-04T17:05:36.484Z","date":"2025-12-04","time":"17:05:36"},{"rt":null,"stimulus":"<p style=\"font-size: 50px; margin: 0; text-align: center;\">+</p>","response":null,"trial_type":"html-keyboard-response","trial_index":196,"plugin_version":"2.1.0","time_elapsed":367521,"subject_id":"88571","group":"Group1","full_date":"2025-12-04T17:05:36.484Z","date":"2025-12-04","time":"17:05:36"},{"task":"memory_phase","broad_category":"S","image_png":"S_Dolomite_13.png","image_id":397,"category_name":"Dolomite","category":25,"distinct_rating":1.77,"distinct_type":"Bottom","rt":null,"stimulus":"Stimuli_Rocks480/S_Dolomite_13.png","response":null,"trial_type":"image-keyboard-response","trial_index":197,"plugin_version":"2.1.0","time_elapsed":370025,"subject_id":"88571","group":"Group1","full_date":"2025-12-04T17:05:36.484Z","date":"2025-12-04","time":"17:05:36"},{"rt":null,"stimulus":"<p style=\"font-size: 50px; margin: 0; text-align: center;\">+</p>","response":null,"trial_type":"html-keyboard-response","trial_index":198,"plugin_version":"2.1.0","time_elapsed":371026,"subject_id":"88571","group":"Group1","full_date":"2025-12-04T17:05:36.484Z","date":"2025-12-04","time":"17:05:36"},{"task":"memory_phase","broad_category":"S","image_png":"S_Dolomite_12.png","image_id":396,"category_name":"Dolomite","category":25,"distinct_rating":1.85,"distinct_type":"Bottom","rt":null,"stimulus":"Stimuli_Rocks480/S_Dolomite_12.png","response":null,"trial_type":"image-keyboard-response","trial_index":199,"plugin_version":"2.1.0","time_elapsed":373529,"subject_id":"88571","group":"Group1","full_date":"2025-12-04T17:05:36.484Z","date":"2025-12-04","time":"17:05:36"},{"rt":null,"stimulus":"<p style=\"font-size: 50px; margin: 0; text-align: center;\">+</p>","response":null,"trial_type":"html-keyboard-response","trial_index":200,"plugin_version":"2.1.0","time_elapsed":374531,"subject_id":"88571","group":"Group1","full_date":"2025-12-04T17:05:36.484Z","date":"2025-12-04","time":"17:05:36"},{"task":"memory_phase","broad_category":"I","image_png":"I_Rhyolite_16.png","image_id":160,"category_name":"Rhyolite","category":10,"distinct_rating":2.19,"distinct_type":"Bottom","rt":null,"stimulus":"Stimuli_Rocks480/I_Rhyolite_16.png","response":null,"trial_type":"image-keyboard-response","trial_index":201,"plugin_version":"2.1.0","time_elapsed":377034,"subject_id":"88571","group":"Group1","full_date":"2025-12-04T17:05:36.484Z","date":"2025-12-04","time":"17:05:36"},{"rt":null,"stimulus":"<p style=\"font-size: 50px; margin: 0; text-align: center;\">+</p>","response":null,"trial_type":"html-keyboard-response","trial_index":202,"plugin_version":"2.1.0","time_elapsed":378036,"subject_id":"88571","group":"Group1","full_date":"2025-12-04T17:05:36.484Z","date":"2025-12-04","time":"17:05:36"},{"task":"memory_phase","broad_category":"I","image_png":"I_Pegmatite_16.png","image_id":112,"category_name":"Pegmatite","category":7,"distinct_rating":7.03,"distinct_type":"Top","rt":null,"stimulus":"Stimuli_Rocks480/I_Pegmatite_16.png","response":null,"trial_type":"image-keyboard-response","trial_index":203,"plugin_version":"2.1.0","time_elapsed":380540,"subject_id":"88571","group":"Group1","full_date":"2025-12-04T17:05:36.484Z","date":"2025-12-04","time":"17:05:36"},{"rt":null,"stimulus":"<p style=\"font-size: 50px; margin: 0; text-align: center;\">+</p>","response":null,"trial_type":"html-keyboard-response","trial_index":204,"plugin_version":"2.1.0","time_elapsed":381543,"subject_id":"88571","group":"Group1","full_date":"2025-12-04T17:05:36.484Z","date":"2025-12-04","time":"17:05:36"},{"task":"memory_phase","broad_category":"I","image_png":"I_Diorite_03.png","image_id":35,"category_name":"Diorite","category":3,"distinct_rating":3.14,"distinct_type":"Bottom","rt":null,"stimulus":"Stimuli_Rocks480/I_Diorite_03.png","response":null,"trial_type":"image-keyboard-response","trial_index":205,"plugin_version":"2.1.0","time_elapsed":384046,"subject_id":"88571","group":"Group1","full_date":"2025-12-04T17:05:36.484Z","date":"2025-12-04","time":"17:05:36"},{"rt":null,"stimulus":"<p style=\"font-size: 50px; margin: 0; text-align: center;\">+</p>","response":null,"trial_type":"html-keyboard-response","trial_index":206,"plugin_version":"2.1.0","time_elapsed":385048,"subject_id":"88571","group":"Group1","full_date":"2025-12-04T17:05:36.484Z","date":"2025-12-04","time":"17:05:36"},{"task":"memory_phase","broad_category":"S","image_png":"S_Conglomerate_05.png","image_id":373,"category_name":"Conglomerate","category":24,"distinct_rating":7.32,"distinct_type":"Top","rt":null,"stimulus":"Stimuli_Rocks480/S_Conglomerate_05.png","response":null,"trial_type":"image-keyboard-response","trial_index":207,"plugin_version":"2.1.0","time_elapsed":387552,"subject_id":"88571","group":"Group1","full_date":"2025-12-04T17:05:36.484Z","date":"2025-12-04","time":"17:05:36"},{"rt":3833,"stimulus":"<p style=\"max-width: 760px; margin: auto; font-size: 35px; line-height: 1.5;\">You have completed 2 study phases. Now, we'll show you all the images again 1 more time.<br><br>Press SPACE to continue</p>","response":" ","trial_type":"html-keyboard-response","trial_index":208,"plugin_version":"2.1.0","time_elapsed":391386,"subject_id":"88571","group":"Group1","full_date":"2025-12-04T17:05:36.484Z","date":"2025-12-04","time":"17:05:36"},{"rt":null,"stimulus":"<p style=\"font-size: 50px; margin: 0; text-align: center;\">+</p>","response":null,"trial_type":"html-keyboard-response","trial_index":209,"plugin_version":"2.1.0","time_elapsed":392389,"subject_id":"88571","group":"Group1","full_date":"2025-12-04T17:05:36.484Z","date":"2025-12-04","time":"17:05:36"},{"task":"memory_phase","broad_category":"M","image_png":"M_Phyllite_03.png","image_id":259,"category_name":"Phyllite","category":17,"distinct_rating":2.5,"distinct_type":"Bottom","rt":null,"stimulus":"Stimuli_Rocks480/M_Phyllite_03.png","response":null,"trial_type":"image-keyboard-response","trial_index":210,"plugin_version":"2.1.0","time_elapsed":394892,"subject_id":"88571","group":"Group1","full_date":"2025-12-04T17:05:36.484Z","date":"2025-12-04","time":"17:05:36"},{"rt":null,"stimulus":"<p style=\"font-size: 50px; margin: 0; text-align: center;\">+</p>","response":null,"trial_type":"html-keyboard-response","trial_index":211,"plugin_version":"2.1.0","time_elapsed":395894,"subject_id":"88571","group":"Group1","full_date":"2025-12-04T17:05:36.484Z","date":"2025-12-04","time":"17:05:36"},{"task":"memory_phase","broad_category":"S","image_png":"S_Shale_12.png","image_id":476,"category_name":"Shale","category":30,"distinct_rating":2.48,"distinct_type":"Bottom","rt":null,"stimulus":"Stimuli_Rocks480/S_Shale_12.png","response":null,"trial_type":"image-keyboard-response","trial_index":212,"plugin_version":"2.1.0","time_elapsed":398397,"subject_id":"88571","group":"Group1","full_date":"2025-12-04T17:05:36.484Z","date":"2025-12-04","time":"17:05:36"},{"rt":null,"stimulus":"<p style=\"font-size: 50px; margin: 0; text-align: center;\">+</p>","response":null,"trial_type":"html-keyboard-response","trial_index":213,"plugin_version":"2.1.0","time_elapsed":399400,"subject_id":"88571","group":"Group1","full_date":"2025-12-04T17:05:36.484Z","date":"2025-12-04","time":"17:05:36"},{"task":"memory_phase","broad_category":"I","image_png":"I_Pumice_11.png","image_id":139,"category_name":"Pumice","category":9,"distinct_rating":1.74,"distinct_type":"Bottom","rt":null,"stimulus":"Stimuli_Rocks480/I_Pumice_11.png","response":null,"trial_type":"image-keyboard-response","trial_index":214,"plugin_version":"2.1.0","time_elapsed":401904,"subject_id":"88571","group":"Group1","full_date":"2025-12-04T17:05:36.484Z","date":"2025-12-04","time":"17:05:36"},{"rt":null,"stimulus":"<p style=\"font-size: 50px; margin: 0; text-align: center;\">+</p>","response":null,"trial_type":"html-keyboard-response","trial_index":215,"plugin_version":"2.1.0","time_elapsed":402906,"subject_id":"88571","group":"Group1","full_date":"2025-12-04T17:05:36.484Z","date":"2025-12-04","time":"17:05:36"},{"task":"memory_phase","broad_category":"M","image_png":"M_Marble_04.png","image_id":228,"category_name":"Marble","category":15,"distinct_rating":3.15,"distinct_type":"Bottom","rt":null,"stimulus":"Stimuli_Rocks480/M_Marble_04.png","response":null,"trial_type":"image-keyboard-response","trial_index":216,"plugin_version":"2.1.0","time_elapsed":405408,"subject_id":"88571","group":"Group1","full_date":"2025-12-04T17:05:36.484Z","date":"2025-12-04","time":"17:05:36"},{"rt":null,"stimulus":"<p style=\"font-size: 50px; margin: 0; text-align: center;\">+</p>","response":null,"trial_type":"html-keyboard-response","trial_index":217,"plugin_version":"2.1.0","time_elapsed":406411,"subject_id":"88571","group":"Group1","full_date":"2025-12-04T17:05:36.484Z","date":"2025-12-04","time":"17:05:36"},{"task":"memory_phase","broad_category":"M","image_png":"M_Gneiss_05.png","image_id":197,"category_name":"Gneiss","category":13,"distinct_rating":2.97,"distinct_type":"Bottom","rt":null,"stimulus":"Stimuli_Rocks480/M_Gneiss_05.png","response":null,"trial_type":"image-keyboard-response","trial_index":218,"plugin_version":"2.1.0","time_elapsed":408915,"subject_id":"88571","group":"Group1","full_date":"2025-12-04T17:05:36.484Z","date":"2025-12-04","time":"17:05:36"},{"rt":null,"stimulus":"<p style=\"font-size: 50px; margin: 0; text-align: center;\">+</p>","response":null,"trial_type":"html-keyboard-response","trial_index":219,"plugin_version":"2.1.0","time_elapsed":409918,"subject_id":"88571","group":"Group1","full_date":"2025-12-04T17:05:36.484Z","date":"2025-12-04","time":"17:05:36"},{"task":"memory_phase","broad_category":"I","image_png":"I_Andesite_06.png","image_id":6,"category_name":"Andesite","category":1,"distinct_rating":3.17,"distinct_type":"Bottom","rt":null,"stimulus":"Stimuli_Rocks480/I_Andesite_06.png","response":null,"trial_type":"image-keyboard-response","trial_index":220,"plugin_version":"2.1.0","time_elapsed":412422,"subject_id":"88571","group":"Group1","full_date":"2025-12-04T17:05:36.484Z","date":"2025-12-04","time":"17:05:36"},{"rt":null,"stimulus":"<p style=\"font-size: 50px; margin: 0; text-align: center;\">+</p>","response":null,"trial_type":"html-keyboard-response","trial_index":221,"plugin_version":"2.1.0","time_elapsed":413424,"subject_id":"88571","group":"Group1","full_date":"2025-12-04T17:05:36.484Z","date":"2025-12-04","time":"17:05:36"},{"task":"memory_phase","broad_category":"S","image_png":"S_Dolomite_12.png","image_id":396,"category_name":"Dolomite","category":25,"distinct_rating":1.85,"distinct_type":"Bottom","rt":null,"stimulus":"Stimuli_Rocks480/S_Dolomite_12.png","response":null,"trial_type":"image-keyboard-response","trial_index":222,"plugin_version":"2.1.0","time_elapsed":415928,"subject_id":"88571","group":"Group1","full_date":"2025-12-04T17:05:36.484Z","date":"2025-12-04","time":"17:05:36"},{"rt":null,"stimulus":"<p style=\"font-size: 50px; margin: 0; text-align: center;\">+</p>","response":null,"trial_type":"html-keyboard-response","trial_index":223,"plugin_version":"2.1.0","time_elapsed":416929,"subject_id":"88571","group":"Group1","full_date":"2025-12-04T17:05:36.484Z","date":"2025-12-04","time":"17:05:36"},{"task":"memory_phase","broad_category":"M","image_png":"M_Phyllite_10.png","image_id":266,"category_name":"Phyllite","category":17,"distinct_rating":2.6,"distinct_type":"Bottom","rt":null,"stimulus":"Stimuli_Rocks480/M_Phyllite_10.png","response":null,"trial_type":"image-keyboard-response","trial_index":224,"plugin_version":"2.1.0","time_elapsed":419433,"subject_id":"88571","group":"Group1","full_date":"2025-12-04T17:05:36.484Z","date":"2025-12-04","time":"17:05:36"},{"rt":null,"stimulus":"<p style=\"font-size: 50px; margin: 0; text-align: center;\">+</p>","response":null,"trial_type":"html-keyboard-response","trial_index":225,"plugin_version":"2.1.0","time_elapsed":420435,"subject_id":"88571","group":"Group1","full_date":"2025-12-04T17:05:36.484Z","date":"2025-12-04","time":"17:05:36"},{"task":"memory_phase","broad_category":"I","image_png":"I_Andesite_10.png","image_id":10,"category_name":"Andesite","category":1,"distinct_rating":3.15,"distinct_type":"Bottom","rt":null,"stimulus":"Stimuli_Rocks480/I_Andesite_10.png","response":null,"trial_type":"image-keyboard-response","trial_index":226,"plugin_version":"2.1.0","time_elapsed":422938,"subject_id":"88571","group":"Group1","full_date":"2025-12-04T17:05:36.484Z","date":"2025-12-04","time":"17:05:36"},{"rt":null,"stimulus":"<p style=\"font-size: 50px; margin: 0; text-align: center;\">+</p>","response":null,"trial_type":"html-keyboard-response","trial_index":227,"plugin_version":"2.1.0","time_elapsed":423940,"subject_id":"88571","group":"Group1","full_date":"2025-12-04T17:05:36.484Z","date":"2025-12-04","time":"17:05:36"},{"task":"memory_phase","broad_category":"S","image_png":"S_Dolomite_14.png","image_id":398,"category_name":"Dolomite","category":25,"distinct_rating":1.43,"distinct_type":"Bottom","rt":null,"stimulus":"Stimuli_Rocks480/S_Dolomite_14.png","response":null,"trial_type":"image-keyboard-response","trial_index":228,"plugin_version":"2.1.0","time_elapsed":426443,"subject_id":"88571","group":"Group1","full_date":"2025-12-04T17:05:36.484Z","date":"2025-12-04","time":"17:05:36"},{"rt":null,"stimulus":"<p style=\"font-size: 50px; margin: 0; text-align: center;\">+</p>","response":null,"trial_type":"html-keyboard-response","trial_index":229,"plugin_version":"2.1.0","time_elapsed":427446,"subject_id":"88571","group":"Group1","full_date":"2025-12-04T17:05:36.484Z","date":"2025-12-04","time":"17:05:36"},{"task":"memory_phase","broad_category":"M","image_png":"M_Slate_15.png","image_id":319,"category_name":"Slate","category":20,"distinct_rating":2.13,"distinct_type":"Bottom","rt":null,"stimulus":"Stimuli_Rocks480/M_Slate_15.png","response":null,"trial_type":"image-keyboard-response","trial_index":230,"plugin_version":"2.1.0","time_elapsed":429949,"subject_id":"88571","group":"Group1","full_date":"2025-12-04T17:05:36.484Z","date":"2025-12-04","time":"17:05:36"},{"rt":null,"stimulus":"<p style=\"font-size: 50px; margin: 0; text-align: center;\">+</p>","response":null,"trial_type":"html-keyboard-response","trial_index":231,"plugin_version":"2.1.0","time_elapsed":430951,"subject_id":"88571","group":"Group1","full_date":"2025-12-04T17:05:36.484Z","date":"2025-12-04","time":"17:05:36"},{"task":"memory_phase","broad_category":"S","image_png":"S_Breccia_11.png","image_id":347,"category_name":"Breccia","category":22,"distinct_rating":6.7,"distinct_type":"Top","rt":null,"stimulus":"Stimuli_Rocks480/S_Breccia_11.png","response":null,"trial_type":"image-keyboard-response","trial_index":232,"plugin_version":"2.1.0","time_elapsed":433454,"subject_id":"88571","group":"Group1","full_date":"2025-12-04T17:05:36.484Z","date":"2025-12-04","time":"17:05:36"},{"rt":null,"stimulus":"<p style=\"font-size: 50px; margin: 0; text-align: center;\">+</p>","response":null,"trial_type":"html-keyboard-response","trial_index":233,"plugin_version":"2.1.0","time_elapsed":434457,"subject_id":"88571","group":"Group1","full_date":"2025-12-04T17:05:36.484Z","date":"2025-12-04","time":"17:05:36"},{"task":"memory_phase","broad_category":"S","image_png":"S_Shale_08.png","image_id":472,"category_name":"Shale","category":30,"distinct_rating":2.55,"distinct_type":"Bottom","rt":null,"stimulus":"Stimuli_Rocks480/S_Shale_08.png","response":null,"trial_type":"image-keyboard-response","trial_index":234,"plugin_version":"2.1.0","time_elapsed":436960,"subject_id":"88571","group":"Group1","full_date":"2025-12-04T17:05:36.484Z","date":"2025-12-04","time":"17:05:36"},{"rt":null,"stimulus":"<p style=\"font-size: 50px; margin: 0; text-align: center;\">+</p>","response":null,"trial_type":"html-keyboard-response","trial_index":235,"plugin_version":"2.1.0","time_elapsed":437963,"subject_id":"88571","group":"Group1","full_date":"2025-12-04T17:05:36.484Z","date":"2025-12-04","time":"17:05:36"},{"task":"memory_phase","broad_category":"I","image_png":"I_Rhyolite_14.png","image_id":158,"category_name":"Rhyolite","category":10,"distinct_rating":2.59,"distinct_type":"Bottom","rt":null,"stimulus":"Stimuli_Rocks480/I_Rhyolite_14.png","response":null,"trial_type":"image-keyboard-response","trial_index":236,"plugin_version":"2.1.0","time_elapsed":440466,"subject_id":"88571","group":"Group1","full_date":"2025-12-04T17:05:36.484Z","date":"2025-12-04","time":"17:05:36"},{"rt":null,"stimulus":"<p style=\"font-size: 50px; margin: 0; text-align: center;\">+</p>","response":null,"trial_type":"html-keyboard-response","trial_index":237,"plugin_version":"2.1.0","time_elapsed":441470,"subject_id":"88571","group":"Group1","full_date":"2025-12-04T17:05:36.484Z","date":"2025-12-04","time":"17:05:36"},{"task":"memory_phase","broad_category":"I","image_png":"I_Obsidian_05.png","image_id":85,"category_name":"Obsidian","category":6,"distinct_rating":7.32,"distinct_type":"Top","rt":null,"stimulus":"Stimuli_Rocks480/I_Obsidian_05.png","response":null,"trial_type":"image-keyboard-response","trial_index":238,"plugin_version":"2.1.0","time_elapsed":443972,"subject_id":"88571","group":"Group1","full_date":"2025-12-04T17:05:36.484Z","date":"2025-12-04","time":"17:05:36"},{"rt":null,"stimulus":"<p style=\"font-size: 50px; margin: 0; text-align: center;\">+</p>","response":null,"trial_type":"html-keyboard-response","trial_index":239,"plugin_version":"2.1.0","time_elapsed":444975,"subject_id":"88571","group":"Group1","full_date":"2025-12-04T17:05:36.484Z","date":"2025-12-04","time":"17:05:36"},{"task":"memory_phase","broad_category":"S","image_png":"S_Sandstone_03.png","image_id":451,"category_name":"Sandstone","category":29,"distinct_rating":1.86,"distinct_type":"Bottom","rt":null,"stimulus":"Stimuli_Rocks480/S_Sandstone_03.png","response":null,"trial_type":"image-keyboard-response","trial_index":240,"plugin_version":"2.1.0","time_elapsed":447478,"subject_id":"88571","group":"Group1","full_date":"2025-12-04T17:05:36.484Z","date":"2025-12-04","time":"17:05:36"},{"rt":null,"stimulus":"<p style=\"font-size: 50px; margin: 0; text-align: center;\">+</p>","response":null,"trial_type":"html-keyboard-response","trial_index":241,"plugin_version":"2.1.0","time_elapsed":448481,"subject_id":"88571","group":"Group1","full_date":"2025-12-04T17:05:36.484Z","date":"2025-12-04","time":"17:05:36"},{"task":"memory_phase","broad_category":"I","image_png":"I_Basalt_01.png","image_id":17,"category_name":"Basalt","category":2,"distinct_rating":1.92,"distinct_type":"Bottom","rt":null,"stimulus":"Stimuli_Rocks480/I_Basalt_01.png","response":null,"trial_type":"image-keyboard-response","trial_index":242,"plugin_version":"2.1.0","time_elapsed":450984,"subject_id":"88571","group":"Group1","full_date":"2025-12-04T17:05:36.484Z","date":"2025-12-04","time":"17:05:36"},{"rt":null,"stimulus":"<p style=\"font-size: 50px; margin: 0; text-align: center;\">+</p>","response":null,"trial_type":"html-keyboard-response","trial_index":243,"plugin_version":"2.1.0","time_elapsed":451986,"subject_id":"88571","group":"Group1","full_date":"2025-12-04T17:05:36.484Z","date":"2025-12-04","time":"17:05:36"},{"task":"memory_phase","broad_category":"M","image_png":"M_Quartzite_08.png","image_id":280,"category_name":"Quartzite","category":18,"distinct_rating":2.15,"distinct_type":"Bottom","rt":null,"stimulus":"Stimuli_Rocks480/M_Quartzite_08.png","response":null,"trial_type":"image-keyboard-response","trial_index":244,"plugin_version":"2.1.0","time_elapsed":454489,"subject_id":"88571","group":"Group1","full_date":"2025-12-04T17:05:36.484Z","date":"2025-12-04","time":"17:05:36"},{"rt":null,"stimulus":"<p style=\"font-size: 50px; margin: 0; text-align: center;\">+</p>","response":null,"trial_type":"html-keyboard-response","trial_index":245,"plugin_version":"2.1.0","time_elapsed":455492,"subject_id":"88571","group":"Group1","full_date":"2025-12-04T17:05:36.484Z","date":"2025-12-04","time":"17:05:36"},{"task":"memory_phase","broad_category":"I","image_png":"I_Pumice_08.png","image_id":136,"category_name":"Pumice","category":9,"distinct_rating":3.1,"distinct_type":"Bottom","rt":null,"stimulus":"Stimuli_Rocks480/I_Pumice_08.png","response":null,"trial_type":"image-keyboard-response","trial_index":246,"plugin_version":"2.1.0","time_elapsed":457996,"subject_id":"88571","group":"Group1","full_date":"2025-12-04T17:05:36.484Z","date":"2025-12-04","time":"17:05:36"},{"rt":null,"stimulus":"<p style=\"font-size: 50px; margin: 0; text-align: center;\">+</p>","response":null,"trial_type":"html-keyboard-response","trial_index":247,"plugin_version":"2.1.0","time_elapsed":458998,"subject_id":"88571","group":"Group1","full_date":"2025-12-04T17:05:36.484Z","date":"2025-12-04","time":"17:05:36"},{"task":"memory_phase","broad_category":"S","image_png":"S_Sandstone_16.png","image_id":464,"category_name":"Sandstone","category":29,"distinct_rating":1.93,"distinct_type":"Bottom","rt":null,"stimulus":"Stimuli_Rocks480/S_Sandstone_16.png","response":null,"trial_type":"image-keyboard-response","trial_index":248,"plugin_version":"2.1.0","time_elapsed":461501,"subject_id":"88571","group":"Group1","fu