[{"width":1324,"height":723,"webaudio":true,"browser":"chrome","browser_version":"142.0.0","mobile":false,"os":"Mac OS","fullscreen":true,"vsync_rate":60.38,"webcam":true,"microphone":true,"trial_type":"browser-check","trial_index":0,"plugin_version":"2.1.0","time_elapsed":1004,"subject_id":"90323","group":"Group2","full_date":"2025-12-05T00:46:15.171Z","date":"2025-12-05","time":"00:46:15"},{"success":true,"timeout":false,"failed_images":[],"failed_audio":[],"failed_video":[],"trial_type":"preload","trial_index":1,"plugin_version":"2.1.0","time_elapsed":2830,"subject_id":"90323","group":"Group2","full_date":"2025-12-05T00:46:15.171Z","date":"2025-12-05","time":"00:46:15"},{"rt":3943,"url":"SONA_consent_memorability.html","trial_type":"external-html","trial_index":2,"plugin_version":"2.1.0","time_elapsed":6834,"subject_id":"90323","group":"Group2","full_date":"2025-12-05T00:46:15.171Z","date":"2025-12-05","time":"00:46:15"},{"success":true,"rt":930,"trial_type":"fullscreen","trial_index":3,"plugin_version":"2.1.0","time_elapsed":8769,"subject_id":"90323","group":"Group2","full_date":"2025-12-05T00:46:15.171Z","date":"2025-12-05","time":"00:46:15"},{"rt":1745,"stimulus":"<div style=\"max-width: 760px; margin: auto; font-size: 20px; line-height: 1.5;\">\n      <h1 style=\"text-align:center; font-size: 30px;\">Instructions</h1>\n      <p>\n        Welcome to the study on <b>visual memory</b>. This experiment consists of <b>two phases</b>: \n        a <b>study phase</b> and a <b>test phase</b>.\n      </p>\n      <p>\n        In the study phase, you will see a series of rock images along with their category labels.\n        The images will appear one at a time.\n        <b>Your task</b> is to learn the categories to which the rock images belong \n        and to remember each image as accurately as possible.\n      </p> \n      <p>\n        Note that we will repeat the study phase <b>3 times</b>, \n        so you will have multiple opportunities to see and remember each image.\n      </p>\n      <p>\n        After the study phase, <b>your memory will be tested</b>. \n        Additional instructions for the test phase will be provided at that time.\n      </p>\n      <p>\n        If your computer has multiple <b>language settings</b> (e.g., English and another language),\n        please make sure it is set to English before starting.\n      </p>\n      <p>\n        You can track your progress using the <b>completion bar</b> at the top of the screen. \n        Please note that the bar will refresh when the test phase begins \n        to give you an accurate sense of your progress in both phases.\n      </p> \n      <p>\n        Press the button below when you are ready to begin.\n      </p>\n    </div>","response":0,"trial_type":"html-button-response","trial_index":4,"plugin_version":"2.1.0","time_elapsed":10518,"subject_id":"90323","group":"Group2","full_date":"2025-12-05T00:46:15.171Z","date":"2025-12-05","time":"00:46:15"},{"rt":null,"stimulus":"<p style=\"font-size: 50px; margin: 0; text-align: center;\">+</p>","response":null,"trial_type":"html-keyboard-response","trial_index":5,"plugin_version":"2.1.0","time_elapsed":11524,"subject_id":"90323","group":"Group2","full_date":"2025-12-05T00:46:15.171Z","date":"2025-12-05","time":"00:46:15"},{"task":"memory_phase","broad_category":"S","image_png":"S_Shale_07.png","image_id":471,"category_name":"Shale","category":30,"distinct_rating":2.73,"distinct_type":"Bottom","rt":null,"stimulus":"Stimuli_Rocks480/S_Shale_07.png","response":null,"trial_type":"image-keyboard-response","trial_index":6,"plugin_version":"2.1.0","time_elapsed":14030,"subject_id":"90323","group":"Group2","full_date":"2025-12-05T00:46:15.171Z","date":"2025-12-05","time":"00:46:15"},{"rt":null,"stimulus":"<p style=\"font-size: 50px; margin: 0; text-align: center;\">+</p>","response":null,"trial_type":"html-keyboard-response","trial_index":7,"plugin_version":"2.1.0","time_elapsed":15033,"subject_id":"90323","group":"Group2","full_date":"2025-12-05T00:46:15.171Z","date":"2025-12-05","time":"00:46:15"},{"task":"memory_phase","broad_category":"I","image_png":"I_Rhyolite_10.png","image_id":154,"category_name":"Rhyolite","category":10,"distinct_rating":2.88,"distinct_type":"Bottom","rt":null,"stimulus":"Stimuli_Rocks480/I_Rhyolite_10.png","response":null,"trial_type":"image-keyboard-response","trial_index":8,"plugin_version":"2.1.0","time_elapsed":17538,"subject_id":"90323","group":"Group2","full_date":"2025-12-05T00:46:15.171Z","date":"2025-12-05","time":"00:46:15"},{"rt":null,"stimulus":"<p style=\"font-size: 50px; margin: 0; text-align: center;\">+</p>","response":null,"trial_type":"html-keyboard-response","trial_index":9,"plugin_version":"2.1.0","time_elapsed":18541,"subject_id":"90323","group":"Group2","full_date":"2025-12-05T00:46:15.171Z","date":"2025-12-05","time":"00:46:15"},{"task":"memory_phase","broad_category":"M","image_png":"M_Quartzite_07.png","image_id":279,"category_name":"Quartzite","category":18,"distinct_rating":1.97,"distinct_type":"Bottom","rt":null,"stimulus":"Stimuli_Rocks480/M_Quartzite_07.png","response":null,"trial_type":"image-keyboard-response","trial_index":10,"plugin_version":"2.1.0","time_elapsed":21043,"subject_id":"90323","group":"Group2","full_date":"2025-12-05T00:46:15.171Z","date":"2025-12-05","time":"00:46:15"},{"rt":null,"stimulus":"<p style=\"font-size: 50px; margin: 0; text-align: center;\">+</p>","response":null,"trial_type":"html-keyboard-response","trial_index":11,"plugin_version":"2.1.0","time_elapsed":22045,"subject_id":"90323","group":"Group2","full_date":"2025-12-05T00:46:15.171Z","date":"2025-12-05","time":"00:46:15"},{"task":"memory_phase","broad_category":"I","image_png":"I_Pegmatite_11.png","image_id":107,"category_name":"Pegmatite","category":7,"distinct_rating":7.11,"distinct_type":"Top","rt":null,"stimulus":"Stimuli_Rocks480/I_Pegmatite_11.png","response":null,"trial_type":"image-keyboard-response","trial_index":12,"plugin_version":"2.1.0","time_elapsed":24548,"subject_id":"90323","group":"Group2","full_date":"2025-12-05T00:46:15.171Z","date":"2025-12-05","time":"00:46:15"},{"rt":null,"stimulus":"<p style=\"font-size: 50px; margin: 0; text-align: center;\">+</p>","response":null,"trial_type":"html-keyboard-response","trial_index":13,"plugin_version":"2.1.0","time_elapsed":25551,"subject_id":"90323","group":"Group2","full_date":"2025-12-05T00:46:15.171Z","date":"2025-12-05","time":"00:46:15"},{"task":"memory_phase","broad_category":"M","image_png":"M_Quartzite_15.png","image_id":287,"category_name":"Quartzite","category":18,"distinct_rating":2.19,"distinct_type":"Bottom","rt":null,"stimulus":"Stimuli_Rocks480/M_Quartzite_15.png","response":null,"trial_type":"image-keyboard-response","trial_index":14,"plugin_version":"2.1.0","time_elapsed":28055,"subject_id":"90323","group":"Group2","full_date":"2025-12-05T00:46:15.171Z","date":"2025-12-05","time":"00:46:15"},{"rt":null,"stimulus":"<p style=\"font-size: 50px; margin: 0; text-align: center;\">+</p>","response":null,"trial_type":"html-keyboard-response","trial_index":15,"plugin_version":"2.1.0","time_elapsed":29059,"subject_id":"90323","group":"Group2","full_date":"2025-12-05T00:46:15.171Z","date":"2025-12-05","time":"00:46:15"},{"task":"memory_phase","broad_category":"S","image_png":"S_Rock Salt_13.png","image_id":445,"category_name":"Rock Salt","category":28,"distinct_rating":7.58,"distinct_type":"Top","rt":null,"stimulus":"Stimuli_Rocks480/S_Rock Salt_13.png","response":null,"trial_type":"image-keyboard-response","trial_index":16,"plugin_version":"2.1.0","time_elapsed":31563,"subject_id":"90323","group":"Group2","full_date":"2025-12-05T00:46:15.171Z","date":"2025-12-05","time":"00:46:15"},{"rt":null,"stimulus":"<p style=\"font-size: 50px; margin: 0; text-align: center;\">+</p>","response":null,"trial_type":"html-keyboard-response","trial_index":17,"plugin_version":"2.1.0","time_elapsed":32566,"subject_id":"90323","group":"Group2","full_date":"2025-12-05T00:46:15.171Z","date":"2025-12-05","time":"00:46:15"},{"task":"memory_phase","broad_category":"I","image_png":"I_Diorite_10.png","image_id":42,"category_name":"Diorite","category":3,"distinct_rating":2.84,"distinct_type":"Bottom","rt":null,"stimulus":"Stimuli_Rocks480/I_Diorite_10.png","response":null,"trial_type":"image-keyboard-response","trial_index":18,"plugin_version":"2.1.0","time_elapsed":35070,"subject_id":"90323","group":"Group2","full_date":"2025-12-05T00:46:15.171Z","date":"2025-12-05","time":"00:46:15"},{"rt":null,"stimulus":"<p style=\"font-size: 50px; margin: 0; text-align: center;\">+</p>","response":null,"trial_type":"html-keyboard-response","trial_index":19,"plugin_version":"2.1.0","time_elapsed":36073,"subject_id":"90323","group":"Group2","full_date":"2025-12-05T00:46:15.171Z","date":"2025-12-05","time":"00:46:15"},{"task":"memory_phase","broad_category":"S","image_png":"S_Dolomite_07.png","image_id":391,"category_name":"Dolomite","category":25,"distinct_rating":1.73,"distinct_type":"Bottom","rt":null,"stimulus":"Stimuli_Rocks480/S_Dolomite_07.png","response":null,"trial_type":"image-keyboard-response","trial_index":20,"plugin_version":"2.1.0","time_elapsed":38578,"subject_id":"90323","group":"Group2","full_date":"2025-12-05T00:46:15.171Z","date":"2025-12-05","time":"00:46:15"},{"rt":null,"stimulus":"<p style=\"font-size: 50px; margin: 0; text-align: center;\">+</p>","response":null,"trial_type":"html-keyboard-response","trial_index":21,"plugin_version":"2.1.0","time_elapsed":39581,"subject_id":"90323","group":"Group2","full_date":"2025-12-05T00:46:15.171Z","date":"2025-12-05","time":"00:46:15"},{"task":"memory_phase","broad_category":"I","image_png":"I_Basalt_08.png","image_id":24,"category_name":"Basalt","category":2,"distinct_rating":2.31,"distinct_type":"Bottom","rt":null,"stimulus":"Stimuli_Rocks480/I_Basalt_08.png","response":null,"trial_type":"image-keyboard-response","trial_index":22,"plugin_version":"2.1.0","time_elapsed":42086,"subject_id":"90323","group":"Group2","full_date":"2025-12-05T00:46:15.171Z","date":"2025-12-05","time":"00:46:15"},{"rt":null,"stimulus":"<p style=\"font-size: 50px; margin: 0; text-align: center;\">+</p>","response":null,"trial_type":"html-keyboard-response","trial_index":23,"plugin_version":"2.1.0","time_elapsed":43089,"subject_id":"90323","group":"Group2","full_date":"2025-12-05T00:46:15.171Z","date":"2025-12-05","time":"00:46:15"},{"task":"memory_phase","broad_category":"I","image_png":"I_Rhyolite_05.png","image_id":149,"category_name":"Rhyolite","category":10,"distinct_rating":3.02,"distinct_type":"Bottom","rt":null,"stimulus":"Stimuli_Rocks480/I_Rhyolite_05.png","response":null,"trial_type":"image-keyboard-response","trial_index":24,"plugin_version":"2.1.0","time_elapsed":45593,"subject_id":"90323","group":"Group2","full_date":"2025-12-05T00:46:15.171Z","date":"2025-12-05","time":"00:46:15"},{"rt":null,"stimulus":"<p style=\"font-size: 50px; margin: 0; text-align: center;\">+</p>","response":null,"trial_type":"html-keyboard-response","trial_index":25,"plugin_version":"2.1.0","time_elapsed":46595,"subject_id":"90323","group":"Group2","full_date":"2025-12-05T00:46:15.171Z","date":"2025-12-05","time":"00:46:15"},{"task":"memory_phase","broad_category":"M","image_png":"M_Marble_02.png","image_id":226,"category_name":"Marble","category":15,"distinct_rating":3.2,"distinct_type":"Bottom","rt":null,"stimulus":"Stimuli_Rocks480/M_Marble_02.png","response":null,"trial_type":"image-keyboard-response","trial_index":26,"plugin_version":"2.1.0","time_elapsed":49098,"subject_id":"90323","group":"Group2","full_date":"2025-12-05T00:46:15.171Z","date":"2025-12-05","time":"00:46:15"},{"rt":null,"stimulus":"<p style=\"font-size: 50px; margin: 0; text-align: center;\">+</p>","response":null,"trial_type":"html-keyboard-response","trial_index":27,"plugin_version":"2.1.0","time_elapsed":50101,"subject_id":"90323","group":"Group2","full_date":"2025-12-05T00:46:15.171Z","date":"2025-12-05","time":"00:46:15"},{"task":"memory_phase","broad_category":"S","image_png":"S_Shale_02.png","image_id":466,"category_name":"Shale","category":30,"distinct_rating":2.9,"distinct_type":"Bottom","rt":null,"stimulus":"Stimuli_Rocks480/S_Shale_02.png","response":null,"trial_type":"image-keyboard-response","trial_index":28,"plugin_version":"2.1.0","time_elapsed":52606,"subject_id":"90323","group":"Group2","full_date":"2025-12-05T00:46:15.171Z","date":"2025-12-05","time":"00:46:15"},{"rt":null,"stimulus":"<p style=\"font-size: 50px; margin: 0; text-align: center;\">+</p>","response":null,"trial_type":"html-keyboard-response","trial_index":29,"plugin_version":"2.1.0","time_elapsed":53608,"subject_id":"90323","group":"Group2","full_date":"2025-12-05T00:46:15.171Z","date":"2025-12-05","time":"00:46:15"},{"task":"memory_phase","broad_category":"I","image_png":"I_Diorite_01.png","image_id":33,"category_name":"Diorite","category":3,"distinct_rating":2.97,"distinct_type":"Bottom","rt":null,"stimulus":"Stimuli_Rocks480/I_Diorite_01.png","response":null,"trial_type":"image-keyboard-response","trial_index":30,"plugin_version":"2.1.0","time_elapsed":56112,"subject_id":"90323","group":"Group2","full_date":"2025-12-05T00:46:15.171Z","date":"2025-12-05","time":"00:46:15"},{"rt":null,"stimulus":"<p style=\"font-size: 50px; margin: 0; text-align: center;\">+</p>","response":null,"trial_type":"html-keyboard-response","trial_index":31,"plugin_version":"2.1.0","time_elapsed":57115,"subject_id":"90323","group":"Group2","full_date":"2025-12-05T00:46:15.171Z","date":"2025-12-05","time":"00:46:15"},{"task":"memory_phase","broad_category":"M","image_png":"M_Slate_10.png","image_id":314,"category_name":"Slate","category":20,"distinct_rating":1.94,"distinct_type":"Bottom","rt":null,"stimulus":"Stimuli_Rocks480/M_Slate_10.png","response":null,"trial_type":"image-keyboard-response","trial_index":32,"plugin_version":"2.1.0","time_elapsed":59620,"subject_id":"90323","group":"Group2","full_date":"2025-12-05T00:46:15.171Z","date":"2025-12-05","time":"00:46:15"},{"rt":null,"stimulus":"<p style=\"font-size: 50px; margin: 0; text-align: center;\">+</p>","response":null,"trial_type":"html-keyboard-response","trial_index":33,"plugin_version":"2.1.0","time_elapsed":60622,"subject_id":"90323","group":"Group2","full_date":"2025-12-05T00:46:15.171Z","date":"2025-12-05","time":"00:46:15"},{"task":"memory_phase","broad_category":"I","image_png":"I_Diorite_15.png","image_id":47,"category_name":"Diorite","category":3,"distinct_rating":3.05,"distinct_type":"Bottom","rt":null,"stimulus":"Stimuli_Rocks480/I_Diorite_15.png","response":null,"trial_type":"image-keyboard-response","trial_index":34,"plugin_version":"2.1.0","time_elapsed":63127,"subject_id":"90323","group":"Group2","full_date":"2025-12-05T00:46:15.171Z","date":"2025-12-05","time":"00:46:15"},{"rt":null,"stimulus":"<p style=\"font-size: 50px; margin: 0; text-align: center;\">+</p>","response":null,"trial_type":"html-keyboard-response","trial_index":35,"plugin_version":"2.1.0","time_elapsed":64129,"subject_id":"90323","group":"Group2","full_date":"2025-12-05T00:46:15.171Z","date":"2025-12-05","time":"00:46:15"},{"task":"memory_phase","broad_category":"M","image_png":"M_Slate_04.png","image_id":308,"category_name":"Slate","category":20,"distinct_rating":2.2,"distinct_type":"Bottom","rt":null,"stimulus":"Stimuli_Rocks480/M_Slate_04.png","response":null,"trial_type":"image-keyboard-response","trial_index":36,"plugin_version":"2.1.0","time_elapsed":66633,"subject_id":"90323","group":"Group2","full_date":"2025-12-05T00:46:15.171Z","date":"2025-12-05","time":"00:46:15"},{"rt":null,"stimulus":"<p style=\"font-size: 50px; margin: 0; text-align: center;\">+</p>","response":null,"trial_type":"html-keyboard-response","trial_index":37,"plugin_version":"2.1.0","time_elapsed":67634,"subject_id":"90323","group":"Group2","full_date":"2025-12-05T00:46:15.171Z","date":"2025-12-05","time":"00:46:15"},{"task":"memory_phase","broad_category":"I","image_png":"I_Basalt_10.png","image_id":26,"category_name":"Basalt","category":2,"distinct_rating":2.76,"distinct_type":"Bottom","rt":null,"stimulus":"Stimuli_Rocks480/I_Basalt_10.png","response":null,"trial_type":"image-keyboard-response","trial_index":38,"plugin_version":"2.1.0","time_elapsed":70138,"subject_id":"90323","group":"Group2","full_date":"2025-12-05T00:46:15.171Z","date":"2025-12-05","time":"00:46:15"},{"rt":null,"stimulus":"<p style=\"font-size: 50px; margin: 0; text-align: center;\">+</p>","response":null,"trial_type":"html-keyboard-response","trial_index":39,"plugin_version":"2.1.0","time_elapsed":71142,"subject_id":"90323","group":"Group2","full_date":"2025-12-05T00:46:15.171Z","date":"2025-12-05","time":"00:46:15"},{"task":"memory_phase","broad_category":"I","image_png":"I_Pumice_01.png","image_id":129,"category_name":"Pumice","category":9,"distinct_rating":3.25,"distinct_type":"Bottom","rt":null,"stimulus":"Stimuli_Rocks480/I_Pumice_01.png","response":null,"trial_type":"image-keyboard-response","trial_index":40,"plugin_version":"2.1.0","time_elapsed":73646,"subject_id":"90323","group":"Group2","full_date":"2025-12-05T00:46:15.171Z","date":"2025-12-05","time":"00:46:15"},{"rt":null,"stimulus":"<p style=\"font-size: 50px; margin: 0; text-align: center;\">+</p>","response":null,"trial_type":"html-keyboard-response","trial_index":41,"plugin_version":"2.1.0","time_elapsed":74649,"subject_id":"90323","group":"Group2","full_date":"2025-12-05T00:46:15.171Z","date":"2025-12-05","time":"00:46:15"},{"task":"memory_phase","broad_category":"S","image_png":"S_Sandstone_11.png","image_id":459,"category_name":"Sandstone","category":29,"distinct_rating":1.82,"distinct_type":"Bottom","rt":null,"stimulus":"Stimuli_Rocks480/S_Sandstone_11.png","response":null,"trial_type":"image-keyboard-response","trial_index":42,"plugin_version":"2.1.0","time_elapsed":77153,"subject_id":"90323","group":"Group2","full_date":"2025-12-05T00:46:15.171Z","date":"2025-12-05","time":"00:46:15"},{"rt":null,"stimulus":"<p style=\"font-size: 50px; margin: 0; text-align: center;\">+</p>","response":null,"trial_type":"html-keyboard-response","trial_index":43,"plugin_version":"2.1.0","time_elapsed":78156,"subject_id":"90323","group":"Group2","full_date":"2025-12-05T00:46:15.171Z","date":"2025-12-05","time":"00:46:15"},{"task":"memory_phase","broad_category":"M","image_png":"M_Gneiss_15.png","image_id":207,"category_name":"Gneiss","category":13,"distinct_rating":3.11,"distinct_type":"Bottom","rt":null,"stimulus":"Stimuli_Rocks480/M_Gneiss_15.png","response":null,"trial_type":"image-keyboard-response","trial_index":44,"plugin_version":"2.1.0","time_elapsed":80660,"subject_id":"90323","group":"Group2","full_date":"2025-12-05T00:46:15.171Z","date":"2025-12-05","time":"00:46:15"},{"rt":null,"stimulus":"<p style=\"font-size: 50px; margin: 0; text-align: center;\">+</p>","response":null,"trial_type":"html-keyboard-response","trial_index":45,"plugin_version":"2.1.0","time_elapsed":81663,"subject_id":"90323","group":"Group2","full_date":"2025-12-05T00:46:15.171Z","date":"2025-12-05","time":"00:46:15"},{"task":"memory_phase","broad_category":"I","image_png":"I_Gabbro_14.png","image_id":62,"category_name":"Gabbro","category":4,"distinct_rating":2.95,"distinct_type":"Bottom","rt":null,"stimulus":"Stimuli_Rocks480/I_Gabbro_14.png","response":null,"trial_type":"image-keyboard-response","trial_index":46,"plugin_version":"2.1.0","time_elapsed":84167,"subject_id":"90323","group":"Group2","full_date":"2025-12-05T00:46:15.171Z","date":"2025-12-05","time":"00:46:15"},{"rt":null,"stimulus":"<p style=\"font-size: 50px; margin: 0; text-align: center;\">+</p>","response":null,"trial_type":"html-keyboard-response","trial_index":47,"plugin_version":"2.1.0","time_elapsed":85170,"subject_id":"90323","group":"Group2","full_date":"2025-12-05T00:46:15.171Z","date":"2025-12-05","time":"00:46:15"},{"task":"memory_phase","broad_category":"M","image_png":"M_Gneiss_14.png","image_id":206,"category_name":"Gneiss","category":13,"distinct_rating":3.41,"distinct_type":"Bottom","rt":null,"stimulus":"Stimuli_Rocks480/M_Gneiss_14.png","response":null,"trial_type":"image-keyboard-response","trial_index":48,"plugin_version":"2.1.0","time_elapsed":87674,"subject_id":"90323","group":"Group2","full_date":"2025-12-05T00:46:15.171Z","date":"2025-12-05","time":"00:46:15"},{"rt":null,"stimulus":"<p style=\"font-size: 50px; margin: 0; text-align: center;\">+</p>","response":null,"trial_type":"html-keyboard-response","trial_index":49,"plugin_version":"2.1.0","time_elapsed":88677,"subject_id":"90323","group":"Group2","full_date":"2025-12-05T00:46:15.171Z","date":"2025-12-05","time":"00:46:15"},{"task":"memory_phase","broad_category":"S","image_png":"S_Shale_03.png","image_id":467,"category_name":"Shale","category":30,"distinct_rating":1.95,"distinct_type":"Bottom","rt":null,"stimulus":"Stimuli_Rocks480/S_Shale_03.png","response":null,"trial_type":"image-keyboard-response","trial_index":50,"plugin_version":"2.1.0","time_elapsed":91182,"subject_id":"90323","group":"Group2","full_date":"2025-12-05T00:46:15.171Z","date":"2025-12-05","time":"00:46:15"},{"rt":null,"stimulus":"<p style=\"font-size: 50px; margin: 0; text-align: center;\">+</p>","response":null,"trial_type":"html-keyboard-response","trial_index":51,"plugin_version":"2.1.0","time_elapsed":92185,"subject_id":"90323","group":"Group2","full_date":"2025-12-05T00:46:15.171Z","date":"2025-12-05","time":"00:46:15"},{"task":"memory_phase","broad_category":"I","image_png":"I_Pumice_13.png","image_id":141,"category_name":"Pumice","category":9,"distinct_rating":3.12,"distinct_type":"Bottom","rt":null,"stimulus":"Stimuli_Rocks480/I_Pumice_13.png","response":null,"trial_type":"image-keyboard-response","trial_index":52,"plugin_version":"2.1.0","time_elapsed":94690,"subject_id":"90323","group":"Group2","full_date":"2025-12-05T00:46:15.171Z","date":"2025-12-05","time":"00:46:15"},{"rt":null,"stimulus":"<p style=\"font-size: 50px; margin: 0; text-align: center;\">+</p>","response":null,"trial_type":"html-keyboard-response","trial_index":53,"plugin_version":"2.1.0","time_elapsed":95692,"subject_id":"90323","group":"Group2","full_date":"2025-12-05T00:46:15.171Z","date":"2025-12-05","time":"00:46:15"},{"task":"memory_phase","broad_category":"M","image_png":"M_Slate_14.png","image_id":318,"category_name":"Slate","category":20,"distinct_rating":2.58,"distinct_type":"Bottom","rt":null,"stimulus":"Stimuli_Rocks480/M_Slate_14.png","response":null,"trial_type":"image-keyboard-response","trial_index":54,"plugin_version":"2.1.0","time_elapsed":98196,"subject_id":"90323","group":"Group2","full_date":"2025-12-05T00:46:15.171Z","date":"2025-12-05","time":"00:46:15"},{"rt":2173,"stimulus":"<p style=\"max-width: 760px; margin: auto; font-size: 35px; line-height: 1.5;\">Press SPACE to continue study phase</p>","response":" ","trial_type":"html-keyboard-response","trial_index":55,"plugin_version":"2.1.0","time_elapsed":100371,"subject_id":"90323","group":"Group2","full_date":"2025-12-05T00:46:15.171Z","date":"2025-12-05","time":"00:46:15"},{"rt":null,"stimulus":"<p style=\"font-size: 50px; margin: 0; text-align: center;\">+</p>","response":null,"trial_type":"html-keyboard-response","trial_index":56,"plugin_version":"2.1.0","time_elapsed":101374,"subject_id":"90323","group":"Group2","full_date":"2025-12-05T00:46:15.171Z","date":"2025-12-05","time":"00:46:15"},{"task":"memory_phase","broad_category":"S","image_png":"S_Rock Salt_15.png","image_id":447,"category_name":"Rock Salt","category":28,"distinct_rating":7.79,"distinct_type":"Top","rt":null,"stimulus":"Stimuli_Rocks480/S_Rock Salt_15.png","response":null,"trial_type":"image-keyboard-response","trial_index":57,"plugin_version":"2.1.0","time_elapsed":103879,"subject_id":"90323","group":"Group2","full_date":"2025-12-05T00:46:15.171Z","date":"2025-12-05","time":"00:46:15"},{"rt":null,"stimulus":"<p style=\"font-size: 50px; margin: 0; text-align: center;\">+</p>","response":null,"trial_type":"html-keyboard-response","trial_index":58,"plugin_version":"2.1.0","time_elapsed":104881,"subject_id":"90323","group":"Group2","full_date":"2025-12-05T00:46:15.171Z","date":"2025-12-05","time":"00:46:15"},{"task":"memory_phase","broad_category":"S","image_png":"S_Chert_13.png","image_id":365,"category_name":"Chert","category":23,"distinct_rating":6.57,"distinct_type":"Top","rt":null,"stimulus":"Stimuli_Rocks480/S_Chert_13.png","response":null,"trial_type":"image-keyboard-response","trial_index":59,"plugin_version":"2.1.0","time_elapsed":107385,"subject_id":"90323","group":"Group2","full_date":"2025-12-05T00:46:15.171Z","date":"2025-12-05","time":"00:46:15"},{"rt":null,"stimulus":"<p style=\"font-size: 50px; margin: 0; text-align: center;\">+</p>","response":null,"trial_type":"html-keyboard-response","trial_index":60,"plugin_version":"2.1.0","time_elapsed":108389,"subject_id":"90323","group":"Group2","full_date":"2025-12-05T00:46:15.171Z","date":"2025-12-05","time":"00:46:15"},{"task":"memory_phase","broad_category":"S","image_png":"S_Dolomite_01.png","image_id":385,"category_name":"Dolomite","category":25,"distinct_rating":1.43,"distinct_type":"Bottom","rt":null,"stimulus":"Stimuli_Rocks480/S_Dolomite_01.png","response":null,"trial_type":"image-keyboard-response","trial_index":61,"plugin_version":"2.1.0","time_elapsed":110893,"subject_id":"90323","group":"Group2","full_date":"2025-12-05T00:46:15.171Z","date":"2025-12-05","time":"00:46:15"},{"rt":null,"stimulus":"<p style=\"font-size: 50px; margin: 0; text-align: center;\">+</p>","response":null,"trial_type":"html-keyboard-response","trial_index":62,"plugin_version":"2.1.0","time_elapsed":111896,"subject_id":"90323","group":"Group2","full_date":"2025-12-05T00:46:15.171Z","date":"2025-12-05","time":"00:46:15"},{"task":"memory_phase","broad_category":"M","image_png":"M_Marble_03.png","image_id":227,"category_name":"Marble","category":15,"distinct_rating":2.67,"distinct_type":"Bottom","rt":null,"stimulus":"Stimuli_Rocks480/M_Marble_03.png","response":null,"trial_type":"image-keyboard-response","trial_index":63,"plugin_version":"2.1.0","time_elapsed":114400,"subject_id":"90323","group":"Group2","full_date":"2025-12-05T00:46:15.171Z","date":"2025-12-05","time":"00:46:15"},{"rt":null,"stimulus":"<p style=\"font-size: 50px; margin: 0; text-align: center;\">+</p>","response":null,"trial_type":"html-keyboard-response","trial_index":64,"plugin_version":"2.1.0","time_elapsed":115403,"subject_id":"90323","group":"Group2","full_date":"2025-12-05T00:46:15.171Z","date":"2025-12-05","time":"00:46:15"},{"task":"memory_phase","broad_category":"I","image_png":"I_Gabbro_12.png","image_id":60,"category_name":"Gabbro","category":4,"distinct_rating":2.6,"distinct_type":"Bottom","rt":null,"stimulus":"Stimuli_Rocks480/I_Gabbro_12.png","response":null,"trial_type":"image-keyboard-response","trial_index":65,"plugin_version":"2.1.0","time_elapsed":117908,"subject_id":"90323","group":"Group2","full_date":"2025-12-05T00:46:15.171Z","date":"2025-12-05","time":"00:46:15"},{"rt":null,"stimulus":"<p style=\"font-size: 50px; margin: 0; text-align: center;\">+</p>","response":null,"trial_type":"html-keyboard-response","trial_index":66,"plugin_version":"2.1.0","time_elapsed":118911,"subject_id":"90323","group":"Group2","full_date":"2025-12-05T00:46:15.171Z","date":"2025-12-05","time":"00:46:15"},{"task":"memory_phase","broad_category":"M","image_png":"M_Phyllite_02.png","image_id":258,"category_name":"Phyllite","category":17,"distinct_rating":2.89,"distinct_type":"Bottom","rt":null,"stimulus":"Stimuli_Rocks480/M_Phyllite_02.png","response":null,"trial_type":"image-keyboard-response","trial_index":67,"plugin_version":"2.1.0","time_elapsed":121415,"subject_id":"90323","group":"Group2","full_date":"2025-12-05T00:46:15.171Z","date":"2025-12-05","time":"00:46:15"},{"rt":null,"stimulus":"<p style=\"font-size: 50px; margin: 0; text-align: center;\">+</p>","response":null,"trial_type":"html-keyboard-response","trial_index":68,"plugin_version":"2.1.0","time_elapsed":122418,"subject_id":"90323","group":"Group2","full_date":"2025-12-05T00:46:15.171Z","date":"2025-12-05","time":"00:46:15"},{"task":"memory_phase","broad_category":"I","image_png":"I_Gabbro_02.png","image_id":50,"category_name":"Gabbro","category":4,"distinct_rating":2.73,"distinct_type":"Bottom","rt":null,"stimulus":"Stimuli_Rocks480/I_Gabbro_02.png","response":null,"trial_type":"image-keyboard-response","trial_index":69,"plugin_version":"2.1.0","time_elapsed":124922,"subject_id":"90323","group":"Group2","full_date":"2025-12-05T00:46:15.171Z","date":"2025-12-05","time":"00:46:15"},{"rt":null,"stimulus":"<p style=\"font-size: 50px; margin: 0; text-align: center;\">+</p>","response":null,"trial_type":"html-keyboard-response","trial_index":70,"plugin_version":"2.1.0","time_elapsed":125924,"subject_id":"90323","group":"Group2","full_date":"2025-12-05T00:46:15.171Z","date":"2025-12-05","time":"00:46:15"},{"task":"memory_phase","broad_category":"I","image_png":"I_Basalt_13.png","image_id":29,"category_name":"Basalt","category":2,"distinct_rating":2.68,"distinct_type":"Bottom","rt":null,"stimulus":"Stimuli_Rocks480/I_Basalt_13.png","response":null,"trial_type":"image-keyboard-response","trial_index":71,"plugin_version":"2.1.0","time_elapsed":128427,"subject_id":"90323","group":"Group2","full_date":"2025-12-05T00:46:15.171Z","date":"2025-12-05","time":"00:46:15"},{"rt":null,"stimulus":"<p style=\"font-size: 50px; margin: 0; text-align: center;\">+</p>","response":null,"trial_type":"html-keyboard-response","trial_index":72,"plugin_version":"2.1.0","time_elapsed":129430,"subject_id":"90323","group":"Group2","full_date":"2025-12-05T00:46:15.171Z","date":"2025-12-05","time":"00:46:15"},{"task":"memory_phase","broad_category":"S","image_png":"S_Conglomerate_14.png","image_id":382,"category_name":"Conglomerate","category":24,"distinct_rating":6.86,"distinct_type":"Top","rt":null,"stimulus":"Stimuli_Rocks480/S_Conglomerate_14.png","response":null,"trial_type":"image-keyboard-response","trial_index":73,"plugin_version":"2.1.0","time_elapsed":131934,"subject_id":"90323","group":"Group2","full_date":"2025-12-05T00:46:15.171Z","date":"2025-12-05","time":"00:46:15"},{"rt":null,"stimulus":"<p style=\"font-size: 50px; margin: 0; text-align: center;\">+</p>","response":null,"trial_type":"html-keyboard-response","trial_index":74,"plugin_version":"2.1.0","time_elapsed":132937,"subject_id":"90323","group":"Group2","full_date":"2025-12-05T00:46:15.171Z","date":"2025-12-05","time":"00:46:15"},{"task":"memory_phase","broad_category":"I","image_png":"I_Pumice_14.png","image_id":142,"category_name":"Pumice","category":9,"distinct_rating":3.22,"distinct_type":"Bottom","rt":null,"stimulus":"Stimuli_Rocks480/I_Pumice_14.png","response":null,"trial_type":"image-keyboard-response","trial_index":75,"plugin_version":"2.1.0","time_elapsed":135441,"subject_id":"90323","group":"Group2","full_date":"2025-12-05T00:46:15.171Z","date":"2025-12-05","time":"00:46:15"},{"rt":null,"stimulus":"<p style=\"font-size: 50px; margin: 0; text-align: center;\">+</p>","response":null,"trial_type":"html-keyboard-response","trial_index":76,"plugin_version":"2.1.0","time_elapsed":136444,"subject_id":"90323","group":"Group2","full_date":"2025-12-05T00:46:15.171Z","date":"2025-12-05","time":"00:46:15"},{"task":"memory_phase","broad_category":"M","image_png":"M_Marble_14.png","image_id":238,"category_name":"Marble","category":15,"distinct_rating":3.31,"distinct_type":"Bottom","rt":null,"stimulus":"Stimuli_Rocks480/M_Marble_14.png","response":null,"trial_type":"image-keyboard-response","trial_index":77,"plugin_version":"2.1.0","time_elapsed":138947,"subject_id":"90323","group":"Group2","full_date":"2025-12-05T00:46:15.171Z","date":"2025-12-05","time":"00:46:15"},{"rt":null,"stimulus":"<p style=\"font-size: 50px; margin: 0; text-align: center;\">+</p>","response":null,"trial_type":"html-keyboard-response","trial_index":78,"plugin_version":"2.1.0","time_elapsed":139949,"subject_id":"90323","group":"Group2","full_date":"2025-12-05T00:46:15.171Z","date":"2025-12-05","time":"00:46:15"},{"task":"memory_phase","broad_category":"S","image_png":"S_Dolomite_16.png","image_id":400,"category_name":"Dolomite","category":25,"distinct_rating":1.71,"distinct_type":"Bottom","rt":null,"stimulus":"Stimuli_Rocks480/S_Dolomite_16.png","response":null,"trial_type":"image-keyboard-response","trial_index":79,"plugin_version":"2.1.0","time_elapsed":142453,"subject_id":"90323","group":"Group2","full_date":"2025-12-05T00:46:15.171Z","date":"2025-12-05","time":"00:46:15"},{"rt":null,"stimulus":"<p style=\"font-size: 50px; margin: 0; text-align: center;\">+</p>","response":null,"trial_type":"html-keyboard-response","trial_index":80,"plugin_version":"2.1.0","time_elapsed":143456,"subject_id":"90323","group":"Group2","full_date":"2025-12-05T00:46:15.171Z","date":"2025-12-05","time":"00:46:15"},{"task":"memory_phase","broad_category":"I","image_png":"I_Obsidian_06.png","image_id":86,"category_name":"Obsidian","category":6,"distinct_rating":8.01,"distinct_type":"Top","rt":null,"stimulus":"Stimuli_Rocks480/I_Obsidian_06.png","response":null,"trial_type":"image-keyboard-response","trial_index":81,"plugin_version":"2.1.0","time_elapsed":145961,"subject_id":"90323","group":"Group2","full_date":"2025-12-05T00:46:15.171Z","date":"2025-12-05","time":"00:46:15"},{"rt":null,"stimulus":"<p style=\"font-size: 50px; margin: 0; text-align: center;\">+</p>","response":null,"trial_type":"html-keyboard-response","trial_index":82,"plugin_version":"2.1.0","time_elapsed":146963,"subject_id":"90323","group":"Group2","full_date":"2025-12-05T00:46:15.171Z","date":"2025-12-05","time":"00:46:15"},{"task":"memory_phase","broad_category":"M","image_png":"M_Phyllite_05.png","image_id":261,"category_name":"Phyllite","category":17,"distinct_rating":2.14,"distinct_type":"Bottom","rt":null,"stimulus":"Stimuli_Rocks480/M_Phyllite_05.png","response":null,"trial_type":"image-keyboard-response","trial_index":83,"plugin_version":"2.1.0","time_elapsed":149468,"subject_id":"90323","group":"Group2","full_date":"2025-12-05T00:46:15.171Z","date":"2025-12-05","time":"00:46:15"},{"rt":null,"stimulus":"<p style=\"font-size: 50px; margin: 0; text-align: center;\">+</p>","response":null,"trial_type":"html-keyboard-response","trial_index":84,"plugin_version":"2.1.0","time_elapsed":150470,"subject_id":"90323","group":"Group2","full_date":"2025-12-05T00:46:15.171Z","date":"2025-12-05","time":"00:46:15"},{"task":"memory_phase","broad_category":"I","image_png":"I_Andesite_03.png","image_id":3,"category_name":"Andesite","category":1,"distinct_rating":3.17,"distinct_type":"Bottom","rt":null,"stimulus":"Stimuli_Rocks480/I_Andesite_03.png","response":null,"trial_type":"image-keyboard-response","trial_index":85,"plugin_version":"2.1.0","time_elapsed":152974,"subject_id":"90323","group":"Group2","full_date":"2025-12-05T00:46:15.171Z","date":"2025-12-05","time":"00:46:15"},{"rt":null,"stimulus":"<p style=\"font-size: 50px; margin: 0; text-align: center;\">+</p>","response":null,"trial_type":"html-keyboard-response","trial_index":86,"plugin_version":"2.1.0","time_elapsed":153977,"subject_id":"90323","group":"Group2","full_date":"2025-12-05T00:46:15.171Z","date":"2025-12-05","time":"00:46:15"},{"task":"memory_phase","broad_category":"S","image_png":"S_Sandstone_08.png","image_id":456,"category_name":"Sandstone","category":29,"distinct_rating":1.5,"distinct_type":"Bottom","rt":null,"stimulus":"Stimuli_Rocks480/S_Sandstone_08.png","response":null,"trial_type":"image-keyboard-response","trial_index":87,"plugin_version":"2.1.0","time_elapsed":156481,"subject_id":"90323","group":"Group2","full_date":"2025-12-05T00:46:15.171Z","date":"2025-12-05","time":"00:46:15"},{"rt":null,"stimulus":"<p style=\"font-size: 50px; margin: 0; text-align: center;\">+</p>","response":null,"trial_type":"html-keyboard-response","trial_index":88,"plugin_version":"2.1.0","time_elapsed":157484,"subject_id":"90323","group":"Group2","full_date":"2025-12-05T00:46:15.171Z","date":"2025-12-05","time":"00:46:15"},{"task":"memory_phase","broad_category":"M","image_png":"M_Gneiss_10.png","image_id":202,"category_name":"Gneiss","category":13,"distinct_rating":3.09,"distinct_type":"Bottom","rt":null,"stimulus":"Stimuli_Rocks480/M_Gneiss_10.png","response":null,"trial_type":"image-keyboard-response","trial_index":89,"plugin_version":"2.1.0","time_elapsed":159988,"subject_id":"90323","group":"Group2","full_date":"2025-12-05T00:46:15.171Z","date":"2025-12-05","time":"00:46:15"},{"rt":null,"stimulus":"<p style=\"font-size: 50px; margin: 0; text-align: center;\">+</p>","response":null,"trial_type":"html-keyboard-response","trial_index":90,"plugin_version":"2.1.0","time_elapsed":160991,"subject_id":"90323","group":"Group2","full_date":"2025-12-05T00:46:15.171Z","date":"2025-12-05","time":"00:46:15"},{"task":"memory_phase","broad_category":"I","image_png":"I_Pegmatite_03.png","image_id":99,"category_name":"Pegmatite","category":7,"distinct_rating":7.24,"distinct_type":"Top","rt":null,"stimulus":"Stimuli_Rocks480/I_Pegmatite_03.png","response":null,"trial_type":"image-keyboard-response","trial_index":91,"plugin_version":"2.1.0","time_elapsed":163495,"subject_id":"90323","group":"Group2","full_date":"2025-12-05T00:46:15.171Z","date":"2025-12-05","time":"00:46:15"},{"rt":null,"stimulus":"<p style=\"font-size: 50px; margin: 0; text-align: center;\">+</p>","response":null,"trial_type":"html-keyboard-response","trial_index":92,"plugin_version":"2.1.0","time_elapsed":164498,"subject_id":"90323","group":"Group2","full_date":"2025-12-05T00:46:15.171Z","date":"2025-12-05","time":"00:46:15"},{"task":"memory_phase","broad_category":"I","image_png":"I_Andesite_09.png","image_id":9,"category_name":"Andesite","category":1,"distinct_rating":2.49,"distinct_type":"Bottom","rt":null,"stimulus":"Stimuli_Rocks480/I_Andesite_09.png","response":null,"trial_type":"image-keyboard-response","trial_index":93,"plugin_version":"2.1.0","time_elapsed":167002,"subject_id":"90323","group":"Group2","full_date":"2025-12-05T00:46:15.171Z","date":"2025-12-05","time":"00:46:15"},{"rt":null,"stimulus":"<p style=\"font-size: 50px; margin: 0; text-align: center;\">+</p>","response":null,"trial_type":"html-keyboard-response","trial_index":94,"plugin_version":"2.1.0","time_elapsed":168004,"subject_id":"90323","group":"Group2","full_date":"2025-12-05T00:46:15.171Z","date":"2025-12-05","time":"00:46:15"},{"task":"memory_phase","broad_category":"S","image_png":"S_Sandstone_04.png","image_id":452,"category_name":"Sandstone","category":29,"distinct_rating":1.8,"distinct_type":"Bottom","rt":null,"stimulus":"Stimuli_Rocks480/S_Sandstone_04.png","response":null,"trial_type":"image-keyboard-response","trial_index":95,"plugin_version":"2.1.0","time_elapsed":170508,"subject_id":"90323","group":"Group2","full_date":"2025-12-05T00:46:15.171Z","date":"2025-12-05","time":"00:46:15"},{"rt":null,"stimulus":"<p style=\"font-size: 50px; margin: 0; text-align: center;\">+</p>","response":null,"trial_type":"html-keyboard-response","trial_index":96,"plugin_version":"2.1.0","time_elapsed":171511,"subject_id":"90323","group":"Group2","full_date":"2025-12-05T00:46:15.171Z","date":"2025-12-05","time":"00:46:15"},{"task":"memory_phase","broad_category":"M","image_png":"M_Quartzite_12.png","image_id":284,"category_name":"Quartzite","category":18,"distinct_rating":1.92,"distinct_type":"Bottom","rt":null,"stimulus":"Stimuli_Rocks480/M_Quartzite_12.png","response":null,"trial_type":"image-keyboard-response","trial_index":97,"plugin_version":"2.1.0","time_elapsed":174015,"subject_id":"90323","group":"Group2","full_date":"2025-12-05T00:46:15.171Z","date":"2025-12-05","time":"00:46:15"},{"rt":null,"stimulus":"<p style=\"font-size: 50px; margin: 0; text-align: center;\">+</p>","response":null,"trial_type":"html-keyboard-response","trial_index":98,"plugin_version":"2.1.0","time_elapsed":175018,"subject_id":"90323","group":"Group2","full_date":"2025-12-05T00:46:15.171Z","date":"2025-12-05","time":"00:46:15"},{"task":"memory_phase","broad_category":"I","image_png":"I_Rhyolite_08.png","image_id":152,"category_name":"Rhyolite","category":10,"distinct_rating":1.38,"distinct_type":"Bottom","rt":null,"stimulus":"Stimuli_Rocks480/I_Rhyolite_08.png","response":null,"trial_type":"image-keyboard-response","trial_index":99,"plugin_version":"2.1.0","time_elapsed":177521,"subject_id":"90323","group":"Group2","full_date":"2025-12-05T00:46:15.171Z","date":"2025-12-05","time":"00:46:15"},{"rt":null,"stimulus":"<p style=\"font-size: 50px; margin: 0; text-align: center;\">+</p>","response":null,"trial_type":"html-keyboard-response","trial_index":100,"plugin_version":"2.1.0","time_elapsed":178525,"subject_id":"90323","group":"Group2","full_date":"2025-12-05T00:46:15.171Z","date":"2025-12-05","time":"00:46:15"},{"task":"memory_phase","broad_category":"I","image_png":"I_Peridotite_13.png","image_id":125,"category_name":"Peridotite","category":8,"distinct_rating":7.28,"distinct_type":"Top","rt":null,"stimulus":"Stimuli_Rocks480/I_Peridotite_13.png","response":null,"trial_type":"image-keyboard-response","trial_index":101,"plugin_version":"2.1.0","time_elapsed":181028,"subject_id":"90323","group":"Group2","full_date":"2025-12-05T00:46:15.171Z","date":"2025-12-05","time":"00:46:15"},{"rt":null,"stimulus":"<p style=\"font-size: 50px; margin: 0; text-align: center;\">+</p>","response":null,"trial_type":"html-keyboard-response","trial_index":102,"plugin_version":"2.1.0","time_elapsed":182031,"subject_id":"90323","group":"Group2","full_date":"2025-12-05T00:46:15.171Z","date":"2025-12-05","time":"00:46:15"},{"task":"memory_phase","broad_category":"I","image_png":"I_Andesite_04.png","image_id":4,"category_name":"Andesite","category":1,"distinct_rating":3.18,"distinct_type":"Bottom","rt":null,"stimulus":"Stimuli_Rocks480/I_Andesite_04.png","response":null,"trial_type":"image-keyboard-response","trial_index":103,"plugin_version":"2.1.0","time_elapsed":184535,"subject_id":"90323","group":"Group2","full_date":"2025-12-05T00:46:15.171Z","date":"2025-12-05","time":"00:46:15"},{"rt":null,"stimulus":"<p style=\"font-size: 50px; margin: 0; text-align: center;\">+</p>","response":null,"trial_type":"html-keyboard-response","trial_index":104,"plugin_version":"2.1.0","time_elapsed":185538,"subject_id":"90323","group":"Group2","full_date":"2025-12-05T00:46:15.171Z","date":"2025-12-05","time":"00:46:15"},{"task":"memory_phase","broad_category":"M","image_png":"M_Phyllite_13.png","image_id":269,"category_name":"Phyllite","category":17,"distinct_rating":2.8,"distinct_type":"Bottom","rt":null,"stimulus":"Stimuli_Rocks480/M_Phyllite_13.png","response":null,"trial_type":"image-keyboard-response","trial_index":105,"plugin_version":"2.1.0","time_elapsed":188042,"subject_id":"90323","group":"Group2","full_date":"2025-12-05T00:46:15.171Z","date":"2025-12-05","time":"00:46:15"},{"rt":3144,"stimulus":"<p style=\"max-width: 760px; margin: auto; font-size: 35px; line-height: 1.5;\">You have completed 1 study phase. Now, we'll show you all the images again 2 more times.<br><br>Press SPACE to continue</p>","response":" ","trial_type":"html-keyboard-response","trial_index":106,"plugin_version":"2.1.0","time_elapsed":191187,"subject_id":"90323","group":"Group2","full_date":"2025-12-05T00:46:15.171Z","date":"2025-12-05","time":"00:46:15"},{"rt":null,"stimulus":"<p style=\"font-size: 50px; margin: 0; text-align: center;\">+</p>","response":null,"trial_type":"html-keyboard-response","trial_index":107,"plugin_version":"2.1.0","time_elapsed":192190,"subject_id":"90323","group":"Group2","full_date":"2025-12-05T00:46:15.171Z","date":"2025-12-05","time":"00:46:15"},{"task":"memory_phase","broad_category":"I","image_png":"I_Pumice_13.png","image_id":141,"category_name":"Pumice","category":9,"distinct_rating":3.12,"distinct_type":"Bottom","rt":null,"stimulus":"Stimuli_Rocks480/I_Pumice_13.png","response":null,"trial_type":"image-keyboard-response","trial_index":108,"plugin_version":"2.1.0","time_elapsed":194694,"subject_id":"90323","group":"Group2","full_date":"2025-12-05T00:46:15.171Z","date":"2025-12-05","time":"00:46:15"},{"rt":null,"stimulus":"<p style=\"font-size: 50px; margin: 0; text-align: center;\">+</p>","response":null,"trial_type":"html-keyboard-response","trial_index":109,"plugin_version":"2.1.0","time_elapsed":195697,"subject_id":"90323","group":"Group2","full_date":"2025-12-05T00:46:15.171Z","date":"2025-12-05","time":"00:46:15"},{"task":"memory_phase","broad_category":"S","image_png":"S_Dolomite_01.png","image_id":385,"category_name":"Dolomite","category":25,"distinct_rating":1.43,"distinct_type":"Bottom","rt":null,"stimulus":"Stimuli_Rocks480/S_Dolomite_01.png","response":null,"trial_type":"image-keyboard-response","trial_index":110,"plugin_version":"2.1.0","time_elapsed":198202,"subject_id":"90323","group":"Group2","full_date":"2025-12-05T00:46:15.171Z","date":"2025-12-05","time":"00:46:15"},{"rt":null,"stimulus":"<p style=\"font-size: 50px; margin: 0; text-align: center;\">+</p>","response":null,"trial_type":"html-keyboard-response","trial_index":111,"plugin_version":"2.1.0","time_elapsed":199205,"subject_id":"90323","group":"Group2","full_date":"2025-12-05T00:46:15.171Z","date":"2025-12-05","time":"00:46:15"},{"task":"memory_phase","broad_category":"M","image_png":"M_Marble_03.png","image_id":227,"category_name":"Marble","category":15,"distinct_rating":2.67,"distinct_type":"Bottom","rt":null,"stimulus":"Stimuli_Rocks480/M_Marble_03.png","response":null,"trial_type":"image-keyboard-response","trial_index":112,"plugin_version":"2.1.0","time_elapsed":201709,"subject_id":"90323","group":"Group2","full_date":"2025-12-05T00:46:15.171Z","date":"2025-12-05","time":"00:46:15"},{"rt":null,"stimulus":"<p style=\"font-size: 50px; margin: 0; text-align: center;\">+</p>","response":null,"trial_type":"html-keyboard-response","trial_index":113,"plugin_version":"2.1.0","time_elapsed":202712,"subject_id":"90323","group":"Group2","full_date":"2025-12-05T00:46:15.171Z","date":"2025-12-05","time":"00:46:15"},{"task":"memory_phase","broad_category":"S","image_png":"S_Sandstone_08.png","image_id":456,"category_name":"Sandstone","category":29,"distinct_rating":1.5,"distinct_type":"Bottom","rt":null,"stimulus":"Stimuli_Rocks480/S_Sandstone_08.png","response":null,"trial_type":"image-keyboard-response","trial_index":114,"plugin_version":"2.1.0","time_elapsed":205216,"subject_id":"90323","group":"Group2","full_date":"2025-12-05T00:46:15.171Z","date":"2025-12-05","time":"00:46:15"},{"rt":null,"stimulus":"<p style=\"font-size: 50px; margin: 0; text-align: center;\">+</p>","response":null,"trial_type":"html-keyboard-response","trial_index":115,"plugin_version":"2.1.0","time_elapsed":206219,"subject_id":"90323","group":"Group2","full_date":"2025-12-05T00:46:15.171Z","date":"2025-12-05","time":"00:46:15"},{"task":"memory_phase","broad_category":"I","image_png":"I_Diorite_10.png","image_id":42,"category_name":"Diorite","category":3,"distinct_rating":2.84,"distinct_type":"Bottom","rt":null,"stimulus":"Stimuli_Rocks480/I_Diorite_10.png","response":null,"trial_type":"image-keyboard-response","trial_index":116,"plugin_version":"2.1.0","time_elapsed":208723,"subject_id":"90323","group":"Group2","full_date":"2025-12-05T00:46:15.171Z","date":"2025-12-05","time":"00:46:15"},{"rt":null,"stimulus":"<p style=\"font-size: 50px; margin: 0; text-align: center;\">+</p>","response":null,"trial_type":"html-keyboard-response","trial_index":117,"plugin_version":"2.1.0","time_elapsed":209726,"subject_id":"90323","group":"Group2","full_date":"2025-12-05T00:46:15.171Z","date":"2025-12-05","time":"00:46:15"},{"task":"memory_phase","broad_category":"I","image_png":"I_Basalt_10.png","image_id":26,"category_name":"Basalt","category":2,"distinct_rating":2.76,"distinct_type":"Bottom","rt":null,"stimulus":"Stimuli_Rocks480/I_Basalt_10.png","response":null,"trial_type":"image-keyboard-response","trial_index":118,"plugin_version":"2.1.0","time_elapsed":212231,"subject_id":"90323","group":"Group2","full_date":"2025-12-05T00:46:15.171Z","date":"2025-12-05","time":"00:46:15"},{"rt":null,"stimulus":"<p style=\"font-size: 50px; margin: 0; text-align: center;\">+</p>","response":null,"trial_type":"html-keyboard-response","trial_index":119,"plugin_version":"2.1.0","time_elapsed":213233,"subject_id":"90323","group":"Group2","full_date":"2025-12-05T00:46:15.171Z","date":"2025-12-05","time":"00:46:15"},{"task":"memory_phase","broad_category":"I","image_png":"I_Andesite_03.png","image_id":3,"category_name":"Andesite","category":1,"distinct_rating":3.17,"distinct_type":"Bottom","rt":null,"stimulus":"Stimuli_Rocks480/I_Andesite_03.png","response":null,"trial_type":"image-keyboard-response","trial_index":120,"plugin_version":"2.1.0","time_elapsed":215737,"subject_id":"90323","group":"Group2","full_date":"2025-12-05T00:46:15.171Z","date":"2025-12-05","time":"00:46:15"},{"rt":null,"stimulus":"<p style=\"font-size: 50px; margin: 0; text-align: center;\">+</p>","response":null,"trial_type":"html-keyboard-response","trial_index":121,"plugin_version":"2.1.0","time_elapsed":216740,"subject_id":"90323","group":"Group2","full_date":"2025-12-05T00:46:15.171Z","date":"2025-12-05","time":"00:46:15"},{"task":"memory_phase","broad_category":"I","image_png":"I_Rhyolite_05.png","image_id":149,"category_name":"Rhyolite","category":10,"distinct_rating":3.02,"distinct_type":"Bottom","rt":null,"stimulus":"Stimuli_Rocks480/I_Rhyolite_05.png","response":null,"trial_type":"image-keyboard-response","trial_index":122,"plugin_version":"2.1.0","time_elapsed":219244,"subject_id":"90323","group":"Group2","full_date":"2025-12-05T00:46:15.171Z","date":"2025-12-05","time":"00:46:15"},{"rt":null,"stimulus":"<p style=\"font-size: 50px; margin: 0; text-align: center;\">+</p>","response":null,"trial_type":"html-keyboard-response","trial_index":123,"plugin_version":"2.1.0","time_elapsed":220247,"subject_id":"90323","group":"Group2","full_date":"2025-12-05T00:46:15.171Z","date":"2025-12-05","time":"00:46:15"},{"task":"memory_phase","broad_category":"I","image_png":"I_Pumice_01.png","image_id":129,"category_name":"Pumice","category":9,"distinct_rating":3.25,"distinct_type":"Bottom","rt":null,"stimulus":"Stimuli_Rocks480/I_Pumice_01.png","response":null,"trial_type":"image-keyboard-response","trial_index":124,"plugin_version":"2.1.0","time_elapsed":222750,"subject_id":"90323","group":"Group2","full_date":"2025-12-05T00:46:15.171Z","date":"2025-12-05","time":"00:46:15"},{"rt":null,"stimulus":"<p style=\"font-size: 50px; margin: 0; text-align: center;\">+</p>","response":null,"trial_type":"html-keyboard-response","trial_index":125,"plugin_version":"2.1.0","time_elapsed":223753,"subject_id":"90323","group":"Group2","full_date":"2025-12-05T00:46:15.171Z","date":"2025-12-05","time":"00:46:15"},{"task":"memory_phase","broad_category":"I","image_png":"I_Diorite_01.png","image_id":33,"category_name":"Diorite","category":3,"distinct_rating":2.97,"distinct_type":"Bottom","rt":null,"stimulus":"Stimuli_Rocks480/I_Diorite_01.png","response":null,"trial_type":"image-keyboard-response","trial_index":126,"plugin_version":"2.1.0","time_elapsed":226256,"subject_id":"90323","group":"Group2","full_date":"2025-12-05T00:46:15.171Z","date":"2025-12-05","time":"00:46:15"},{"rt":null,"stimulus":"<p style=\"font-size: 50px; margin: 0; text-align: center;\">+</p>","response":null,"trial_type":"html-keyboard-response","trial_index":127,"plugin_version":"2.1.0","time_elapsed":227259,"subject_id":"90323","group":"Group2","full_date":"2025-12-05T00:46:15.171Z","date":"2025-12-05","time":"00:46:15"},{"task":"memory_phase","broad_category":"S","image_png":"S_Conglomerate_14.png","image_id":382,"category_name":"Conglomerate","category":24,"distinct_rating":6.86,"distinct_type":"Top","rt":null,"stimulus":"Stimuli_Rocks480/S_Conglomerate_14.png","response":null,"trial_type":"image-keyboard-response","trial_index":128,"plugin_version":"2.1.0","time_elapsed":229763,"subject_id":"90323","group":"Group2","full_date":"2025-12-05T00:46:15.171Z","date":"2025-12-05","time":"00:46:15"},{"rt":null,"stimulus":"<p style=\"font-size: 50px; margin: 0; text-align: center;\">+</p>","response":null,"trial_type":"html-keyboard-response","trial_index":129,"plugin_version":"2.1.0","time_elapsed":230766,"subject_id":"90323","group":"Group2","full_date":"2025-12-05T00:46:15.171Z","date":"2025-12-05","time":"00:46:15"},{"task":"memory_phase","broad_category":"S","image_png":"S_Sandstone_11.png","image_id":459,"category_name":"Sandstone","category":29,"distinct_rating":1.82,"distinct_type":"Bottom","rt":null,"stimulus":"Stimuli_Rocks480/S_Sandstone_11.png","response":null,"trial_type":"image-keyboard-response","trial_index":130,"plugin_version":"2.1.0","time_elapsed":233270,"subject_id":"90323","group":"Group2","full_date":"2025-12-05T00:46:15.171Z","date":"2025-12-05","time":"00:46:15"},{"rt":null,"stimulus":"<p style=\"font-size: 50px; margin: 0; text-align: center;\">+</p>","response":null,"trial_type":"html-keyboard-response","trial_index":131,"plugin_version":"2.1.0","time_elapsed":234273,"subject_id":"90323","group":"Group2","full_date":"2025-12-05T00:46:15.171Z","date":"2025-12-05","time":"00:46:15"},{"task":"memory_phase","broad_category":"M","image_png":"M_Phyllite_13.png","image_id":269,"category_name":"Phyllite","category":17,"distinct_rating":2.8,"distinct_type":"Bottom","rt":null,"stimulus":"Stimuli_Rocks480/M_Phyllite_13.png","response":null,"trial_type":"image-keyboard-response","trial_index":132,"plugin_version":"2.1.0","time_elapsed":236777,"subject_id":"90323","group":"Group2","full_date":"2025-12-05T00:46:15.171Z","date":"2025-12-05","time":"00:46:15"},{"rt":null,"stimulus":"<p style=\"font-size: 50px; margin: 0; text-align: center;\">+</p>","response":null,"trial_type":"html-keyboard-response","trial_index":133,"plugin_version":"2.1.0","time_elapsed":237779,"subject_id":"90323","group":"Group2","full_date":"2025-12-05T00:46:15.171Z","date":"2025-12-05","time":"00:46:15"},{"task":"memory_phase","broad_category":"S","image_png":"S_Sandstone_04.png","image_id":452,"category_name":"Sandstone","category":29,"distinct_rating":1.8,"distinct_type":"Bottom","rt":null,"stimulus":"Stimuli_Rocks480/S_Sandstone_04.png","response":null,"trial_type":"image-keyboard-response","trial_index":134,"plugin_version":"2.1.0","time_elapsed":240283,"subject_id":"90323","group":"Group2","full_date":"2025-12-05T00:46:15.171Z","date":"2025-12-05","time":"00:46:15"},{"rt":null,"stimulus":"<p style=\"font-size: 50px; margin: 0; text-align: center;\">+</p>","response":null,"trial_type":"html-keyboard-response","trial_index":135,"plugin_version":"2.1.0","time_elapsed":241286,"subject_id":"90323","group":"Group2","full_date":"2025-12-05T00:46:15.171Z","date":"2025-12-05","time":"00:46:15"},{"task":"memory_phase","broad_category":"S","image_png":"S_Dolomite_16.png","image_id":400,"category_name":"Dolomite","category":25,"distinct_rating":1.71,"distinct_type":"Bottom","rt":null,"stimulus":"Stimuli_Rocks480/S_Dolomite_16.png","response":null,"trial_type":"image-keyboard-response","trial_index":136,"plugin_version":"2.1.0","time_elapsed":243790,"subject_id":"90323","group":"Group2","full_date":"2025-12-05T00:46:15.171Z","date":"2025-12-05","time":"00:46:15"},{"rt":null,"stimulus":"<p style=\"font-size: 50px; margin: 0; text-align: center;\">+</p>","response":null,"trial_type":"html-keyboard-response","trial_index":137,"plugin_version":"2.1.0","time_elapsed":244792,"subject_id":"90323","group":"Group2","full_date":"2025-12-05T00:46:15.171Z","date":"2025-12-05","time":"00:46:15"},{"task":"memory_phase","broad_category":"I","image_png":"I_Andesite_09.png","image_id":9,"category_name":"Andesite","category":1,"distinct_rating":2.49,"distinct_type":"Bottom","rt":null,"stimulus":"Stimuli_Rocks480/I_Andesite_09.png","response":null,"trial_type":"image-keyboard-response","trial_index":138,"plugin_version":"2.1.0","time_elapsed":247297,"subject_id":"90323","group":"Group2","full_date":"2025-12-05T00:46:15.171Z","date":"2025-12-05","time":"00:46:15"},{"rt":null,"stimulus":"<p style=\"font-size: 50px; margin: 0; text-align: center;\">+</p>","response":null,"trial_type":"html-keyboard-response","trial_index":139,"plugin_version":"2.1.0","time_elapsed":248300,"subject_id":"90323","group":"Group2","full_date":"2025-12-05T00:46:15.171Z","date":"2025-12-05","time":"00:46:15"},{"task":"memory_phase","broad_category":"I","image_png":"I_Gabbro_12.png","image_id":60,"category_name":"Gabbro","category":4,"distinct_rating":2.6,"distinct_type":"Bottom","rt":null,"stimulus":"Stimuli_Rocks480/I_Gabbro_12.png","response":null,"trial_type":"image-keyboard-response","trial_index":140,"plugin_version":"2.1.0","time_elapsed":250804,"subject_id":"90323","group":"Group2","full_date":"2025-12-05T00:46:15.171Z","date":"2025-12-05","time":"00:46:15"},{"rt":null,"stimulus":"<p style=\"font-size: 50px; margin: 0; text-align: center;\">+</p>","response":null,"trial_type":"html-keyboard-response","trial_index":141,"plugin_version":"2.1.0","time_elapsed":251806,"subject_id":"90323","group":"Group2","full_date":"2025-12-05T00:46:15.171Z","date":"2025-12-05","time":"00:46:15"},{"task":"memory_phase","broad_category":"M","image_png":"M_Gneiss_14.png","image_id":206,"category_name":"Gneiss","category":13,"distinct_rating":3.41,"distinct_type":"Bottom","rt":null,"stimulus":"Stimuli_Rocks480/M_Gneiss_14.png","response":null,"trial_type":"image-keyboard-response","trial_index":142,"plugin_version":"2.1.0","time_elapsed":254310,"subject_id":"90323","group":"Group2","full_date":"2025-12-05T00:46:15.171Z","date":"2025-12-05","time":"00:46:15"},{"rt":null,"stimulus":"<p style=\"font-size: 50px; margin: 0; text-align: center;\">+</p>","response":null,"trial_type":"html-keyboard-response","trial_index":143,"plugin_version":"2.1.0","time_elapsed":255313,"subject_id":"90323","group":"Group2","full_date":"2025-12-05T00:46:15.171Z","date":"2025-12-05","time":"00:46:15"},{"task":"memory_phase","broad_category":"I","image_png":"I_Gabbro_14.png","image_id":62,"category_name":"Gabbro","category":4,"distinct_rating":2.95,"distinct_type":"Bottom","rt":null,"stimulus":"Stimuli_Rocks480/I_Gabbro_14.png","response":null,"trial_type":"image-keyboard-response","trial_index":144,"plugin_version":"2.1.0","time_elapsed":257817,"subject_id":"90323","group":"Group2","full_date":"2025-12-05T00:46:15.171Z","date":"2025-12-05","time":"00:46:15"},{"rt":null,"stimulus":"<p style=\"font-size: 50px; margin: 0; text-align: center;\">+</p>","response":null,"trial_type":"html-keyboard-response","trial_index":145,"plugin_version":"2.1.0","time_elapsed":258820,"subject_id":"90323","group":"Group2","full_date":"2025-12-05T00:46:15.171Z","date":"2025-12-05","time":"00:46:15"},{"task":"memory_phase","broad_category":"I","image_png":"I_Gabbro_02.png","image_id":50,"category_name":"Gabbro","category":4,"distinct_rating":2.73,"distinct_type":"Bottom","rt":null,"stimulus":"Stimuli_Rocks480/I_Gabbro_02.png","response":null,"trial_type":"image-keyboard-response","trial_index":146,"plugin_version":"2.1.0","time_elapsed":261324,"subject_id":"90323","group":"Group2","full_date":"2025-12-05T00:46:15.171Z","date":"2025-12-05","time":"00:46:15"},{"rt":null,"stimulus":"<p style=\"font-size: 50px; margin: 0; text-align: center;\">+</p>","response":null,"trial_type":"html-keyboard-response","trial_index":147,"plugin_version":"2.1.0","time_elapsed":262327,"subject_id":"90323","group":"Group2","full_date":"2025-12-05T00:46:15.171Z","date":"2025-12-05","time":"00:46:15"},{"task":"memory_phase","broad_category":"M","image_png":"M_Slate_14.png","image_id":318,"category_name":"Slate","category":20,"distinct_rating":2.58,"distinct_type":"Bottom","rt":null,"stimulus":"Stimuli_Rocks480/M_Slate_14.png","response":null,"trial_type":"image-keyboard-response","trial_index":148,"plugin_version":"2.1.0","time_elapsed":264831,"subject_id":"90323","group":"Group2","full_date":"2025-12-05T00:46:15.171Z","date":"2025-12-05","time":"00:46:15"},{"rt":null,"stimulus":"<p style=\"font-size: 50px; margin: 0; text-align: center;\">+</p>","response":null,"trial_type":"html-keyboard-response","trial_index":149,"plugin_version":"2.1.0","time_elapsed":265834,"subject_id":"90323","group":"Group2","full_date":"2025-12-05T00:46:15.171Z","date":"2025-12-05","time":"00:46:15"},{"task":"memory_phase","broad_category":"M","image_png":"M_Phyllite_05.png","image_id":261,"category_name":"Phyllite","category":17,"distinct_rating":2.14,"distinct_type":"Bottom","rt":null,"stimulus":"Stimuli_Rocks480/M_Phyllite_05.png","response":null,"trial_type":"image-keyboard-response","trial_index":150,"plugin_version":"2.1.0","time_elapsed":268338,"subject_id":"90323","group":"Group2","full_date":"2025-12-05T00:46:15.171Z","date":"2025-12-05","time":"00:46:15"},{"rt":null,"stimulus":"<p style=\"font-size: 50px; margin: 0; text-align: center;\">+</p>","response":null,"trial_type":"html-keyboard-response","trial_index":151,"plugin_version":"2.1.0","time_elapsed":269341,"subject_id":"90323","group":"Group2","full_date":"2025-12-05T00:46:15.171Z","date":"2025-12-05","time":"00:46:15"},{"task":"memory_phase","broad_category":"S","image_png":"S_Rock Salt_13.png","image_id":445,"category_name":"Rock Salt","category":28,"distinct_rating":7.58,"distinct_type":"Top","rt":null,"stimulus":"Stimuli_Rocks480/S_Rock Salt_13.png","response":null,"trial_type":"image-keyboard-response","trial_index":152,"plugin_version":"2.1.0","time_elapsed":271845,"subject_id":"90323","group":"Group2","full_date":"2025-12-05T00:46:15.171Z","date":"2025-12-05","time":"00:46:15"},{"rt":null,"stimulus":"<p style=\"font-size: 50px; margin: 0; text-align: center;\">+</p>","response":null,"trial_type":"html-keyboard-response","trial_index":153,"plugin_version":"2.1.0","time_elapsed":272847,"subject_id":"90323","group":"Group2","full_date":"2025-12-05T00:46:15.171Z","date":"2025-12-05","time":"00:46:15"},{"task":"memory_phase","broad_category":"I","image_png":"I_Pegmatite_03.png","image_id":99,"category_name":"Pegmatite","category":7,"distinct_rating":7.24,"distinct_type":"Top","rt":null,"stimulus":"Stimuli_Rocks480/I_Pegmatite_03.png","response":null,"trial_type":"image-keyboard-response","trial_index":154,"plugin_version":"2.1.0","time_elapsed":275350,"subject_id":"90323","group":"Group2","full_date":"2025-12-05T00:46:15.171Z","date":"2025-12-05","time":"00:46:15"},{"rt":null,"stimulus":"<p style=\"font-size: 50px; margin: 0; text-align: center;\">+</p>","response":null,"trial_type":"html-keyboard-response","trial_index":155,"plugin_version":"2.1.0","time_elapsed":276354,"subject_id":"90323","group":"Group2","full_date":"2025-12-05T00:46:15.171Z","date":"2025-12-05","time":"00:46:15"},{"task":"memory_phase","broad_category":"M","image_png":"M_Gneiss_10.png","image_id":202,"category_name":"Gneiss","category":13,"distinct_rating":3.09,"distinct_type":"Bottom","rt":null,"stimulus":"Stimuli_Rocks480/M_Gneiss_10.png","response":null,"trial_type":"image-keyboard-response","trial_index":156,"plugin_version":"2.1.0","time_elapsed":278857,"subject_id":"90323","group":"Group2","full_date":"2025-12-05T00:46:15.171Z","date":"2025-12-05","time":"00:46:15"},{"rt":10319,"stimulus":"<p style=\"max-width: 760px; margin: auto; font-size: 35px; line-height: 1.5;\">Press SPACE to continue study phase</p>","response":" ","trial_type":"html-keyboard-response","trial_index":157,"plugin_version":"2.1.0","time_elapsed":289178,"subject_id":"90323","group":"Group2","full_date":"2025-12-05T00:46:15.171Z","date":"2025-12-05","time":"00:46:15"},{"rt":null,"stimulus":"<p style=\"font-size: 50px; margin: 0; text-align: center;\">+</p>","response":null,"trial_type":"html-keyboard-response","trial_index":158,"plugin_version":"2.1.0","time_elapsed":290181,"subject_id":"90323","group":"Group2","full_date":"2025-12-05T00:46:15.171Z","date":"2025-12-05","time":"00:46:15"},{"task":"memory_phase","broad_category":"S","image_png":"S_Chert_13.png","image_id":365,"category_name":"Chert","category":23,"distinct_rating":6.57,"distinct_type":"Top","rt":null,"stimulus":"Stimuli_Rocks480/S_Chert_13.png","response":null,"trial_type":"image-keyboard-response","trial_index":159,"plugin_version":"2.1.0","time_elapsed":292685,"subject_id":"90323","group":"Group2","full_date":"2025-12-05T00:46:15.171Z","date":"2025-12-05","time":"00:46:15"},{"rt":null,"stimulus":"<p style=\"font-size: 50px; margin: 0; text-align: center;\">+</p>","response":null,"trial_type":"html-keyboard-response","trial_index":160,"plugin_version":"2.1.0","time_elapsed":293687,"subject_id":"90323","group":"Group2","full_date":"2025-12-05T00:46:15.171Z","date":"2025-12-05","time":"00:46:15"},{"task":"memory_phase","broad_category":"S","image_png":"S_Shale_03.png","image_id":467,"category_name":"Shale","category":30,"distinct_rating":1.95,"distinct_type":"Bottom","rt":null,"stimulus":"Stimuli_Rocks480/S_Shale_03.png","response":null,"trial_type":"image-keyboard-response","trial_index":161,"plugin_version":"2.1.0","time_elapsed":296192,"subject_id":"90323","group":"Group2","full_date":"2025-12-05T00:46:15.171Z","date":"2025-12-05","time":"00:46:15"},{"rt":null,"stimulus":"<p style=\"font-size: 50px; margin: 0; text-align: center;\">+</p>","response":null,"trial_type":"html-keyboard-response","trial_index":162,"plugin_version":"2.1.0","time_elapsed":297194,"subject_id":"90323","group":"Group2","full_date":"2025-12-05T00:46:15.171Z","date":"2025-12-05","time":"00:46:15"},{"task":"memory_phase","broad_category":"M","image_png":"M_Marble_14.png","image_id":238,"category_name":"Marble","category":15,"distinct_rating":3.31,"distinct_type":"Bottom","rt":null,"stimulus":"Stimuli_Rocks480/M_Marble_14.png","response":null,"trial_type":"image-keyboard-response","trial_index":163,"plugin_version":"2.1.0","time_elapsed":299698,"subject_id":"90323","group":"Group2","full_date":"2025-12-05T00:46:15.171Z","date":"2025-12-05","time":"00:46:15"},{"rt":null,"stimulus":"<p style=\"font-size: 50px; margin: 0; text-align: center;\">+</p>","response":null,"trial_type":"html-keyboard-response","trial_index":164,"plugin_version":"2.1.0","time_elapsed":300701,"subject_id":"90323","group":"Group2","full_date":"2025-12-05T00:46:15.171Z","date":"2025-12-05","time":"00:46:15"},{"task":"memory_phase","broad_category":"I","image_png":"I_Andesite_04.png","image_id":4,"category_name":"Andesite","category":1,"distinct_rating":3.18,"distinct_type":"Bottom","rt":null,"stimulus":"Stimuli_Rocks480/I_Andesite_04.png","response":null,"trial_type":"image-keyboard-response","trial_index":165,"plugin_version":"2.1.0","time_elapsed":303205,"subject_id":"90323","group":"Group2","full_date":"2025-12-05T00:46:15.171Z","date":"2025-12-05","time":"00:46:15"},{"rt":null,"stimulus":"<p style=\"font-size: 50px; margin: 0; text-align: center;\">+</p>","response":null,"trial_type":"html-keyboard-response","trial_index":166,"plugin_version":"2.1.0","time_elapsed":304208,"subject_id":"90323","group":"Group2","full_date":"2025-12-05T00:46:15.171Z","date":"2025-12-05","time":"00:46:15"},{"task":"memory_phase","broad_category":"I","image_png":"I_Basalt_08.png","image_id":24,"category_name":"Basalt","category":2,"distinct_rating":2.31,"distinct_type":"Bottom","rt":null,"stimulus":"Stimuli_Rocks480/I_Basalt_08.png","response":null,"trial_type":"image-keyboard-response","trial_index":167,"plugin_version":"2.1.0","time_elapsed":306711,"subject_id":"90323","group":"Group2","full_date":"2025-12-05T00:46:15.171Z","date":"2025-12-05","time":"00:46:15"},{"rt":null,"stimulus":"<p style=\"font-size: 50px; margin: 0; text-align: center;\">+</p>","response":null,"trial_type":"html-keyboard-response","trial_index":168,"plugin_version":"2.1.0","time_elapsed":307714,"subject_id":"90323","group":"Group2","full_date":"2025-12-05T00:46:15.171Z","date":"2025-12-05","time":"00:46:15"},{"task":"memory_phase","broad_category":"I","image_png":"I_Rhyolite_08.png","image_id":152,"category_name":"Rhyolite","category":10,"distinct_rating":1.38,"distinct_type":"Bottom","rt":null,"stimulus":"Stimuli_Rocks480/I_Rhyolite_08.png","response":null,"trial_type":"image-keyboard-response","trial_index":169,"plugin_version":"2.1.0","time_elapsed":310218,"subject_id":"90323","group":"Group2","full_date":"2025-12-05T00:46:15.171Z","date":"2025-12-05","time":"00:46:15"},{"rt":null,"stimulus":"<p style=\"font-size: 50px; margin: 0; text-align: center;\">+</p>","response":null,"trial_type":"html-keyboard-response","trial_index":170,"plugin_version":"2.1.0","time_elapsed":311221,"subject_id":"90323","group":"Group2","full_date":"2025-12-05T00:46:15.171Z","date":"2025-12-05","time":"00:46:15"},{"task":"memory_phase","broad_category":"M","image_png":"M_Marble_02.png","image_id":226,"category_name":"Marble","category":15,"distinct_rating":3.2,"distinct_type":"Bottom","rt":null,"stimulus":"Stimuli_Rocks480/M_Marble_02.png","response":null,"trial_type":"image-keyboard-response","trial_index":171,"plugin_version":"2.1.0","time_elapsed":313725,"subject_id":"90323","group":"Group2","full_date":"2025-12-05T00:46:15.171Z","date":"2025-12-05","time":"00:46:15"},{"rt":null,"stimulus":"<p style=\"font-size: 50px; margin: 0; text-align: center;\">+</p>","response":null,"trial_type":"html-keyboard-response","trial_index":172,"plugin_version":"2.1.0","time_elapsed":314728,"subject_id":"90323","group":"Group2","full_date":"2025-12-05T00:46:15.171Z","date":"2025-12-05","time":"00:46:15"},{"task":"memory_phase","broad_category":"M","image_png":"M_Quartzite_12.png","image_id":284,"category_name":"Quartzite","category":18,"distinct_rating":1.92,"distinct_type":"Bottom","rt":null,"stimulus":"Stimuli_Rocks480/M_Quartzite_12.png","response":null,"trial_type":"image-keyboard-response","trial_index":173,"plugin_version":"2.1.0","time_elapsed":317232,"subject_id":"90323","group":"Group2","full_date":"2025-12-05T00:46:15.171Z","date":"2025-12-05","time":"00:46:15"},{"rt":null,"stimulus":"<p style=\"font-size: 50px; margin: 0; text-align: center;\">+</p>","response":null,"trial_type":"html-keyboard-response","trial_index":174,"plugin_version":"2.1.0","time_elapsed":318235,"subject_id":"90323","group":"Group2","full_date":"2025-12-05T00:46:15.171Z","date":"2025-12-05","time":"00:46:15"},{"task":"memory_phase","broad_category":"M","image_png":"M_Gneiss_15.png","image_id":207,"category_name":"Gneiss","category":13,"distinct_rating":3.11,"distinct_type":"Bottom","rt":null,"stimulus":"Stimuli_Rocks480/M_Gneiss_15.png","response":null,"trial_type":"image-keyboard-response","trial_index":175,"plugin_version":"2.1.0","time_elapsed":320738,"subject_id":"90323","group":"Group2","full_date":"2025-12-05T00:46:15.171Z","date":"2025-12-05","time":"00:46:15"},{"rt":null,"stimulus":"<p style=\"font-size: 50px; margin: 0; text-align: center;\">+</p>","response":null,"trial_type":"html-keyboard-response","trial_index":176,"plugin_version":"2.1.0","time_elapsed":321741,"subject_id":"90323","group":"Group2","full_date":"2025-12-05T00:46:15.171Z","date":"2025-12-05","time":"00:46:15"},{"task":"memory_phase","broad_category":"M","image_png":"M_Phyllite_02.png","image_id":258,"category_name":"Phyllite","category":17,"distinct_rating":2.89,"distinct_type":"Bottom","rt":null,"stimulus":"Stimuli_Rocks480/M_Phyllite_02.png","response":null,"trial_type":"image-keyboard-response","trial_index":177,"plugin_version":"2.1.0","time_elapsed":324245,"subject_id":"90323","group":"Group2","full_date":"2025-12-05T00:46:15.171Z","date":"2025-12-05","time":"00:46:15"},{"rt":null,"stimulus":"<p style=\"font-size: 50px; margin: 0; text-align: center;\">+</p>","response":null,"trial_type":"html-keyboard-response","trial_index":178,"plugin_version":"2.1.0","time_elapsed":325248,"subject_id":"90323","group":"Group2","full_date":"2025-12-05T00:46:15.171Z","date":"2025-12-05","time":"00:46:15"},{"task":"memory_phase","broad_category":"I","image_png":"I_Diorite_15.png","image_id":47,"category_name":"Diorite","category":3,"distinct_rating":3.05,"distinct_type":"Bottom","rt":null,"stimulus":"Stimuli_Rocks480/I_Diorite_15.png","response":null,"trial_type":"image-keyboard-response","trial_index":179,"plugin_version":"2.1.0","time_elapsed":327752,"subject_id":"90323","group":"Group2","full_date":"2025-12-05T00:46:15.171Z","date":"2025-12-05","time":"00:46:15"},{"rt":null,"stimulus":"<p style=\"font-size: 50px; margin: 0; text-align: center;\">+</p>","response":null,"trial_type":"html-keyboard-response","trial_index":180,"plugin_version":"2.1.0","time_elapsed":328755,"subject_id":"90323","group":"Group2","full_date":"2025-12-05T00:46:15.171Z","date":"2025-12-05","time":"00:46:15"},{"task":"memory_phase","broad_category":"S","image_png":"S_Shale_02.png","image_id":466,"category_name":"Shale","category":30,"distinct_rating":2.9,"distinct_type":"Bottom","rt":null,"stimulus":"Stimuli_Rocks480/S_Shale_02.png","response":null,"trial_type":"image-keyboard-response","trial_index":181,"plugin_version":"2.1.0","time_elapsed":331259,"subject_id":"90323","group":"Group2","full_date":"2025-12-05T00:46:15.171Z","date":"2025-12-05","time":"00:46:15"},{"rt":null,"stimulus":"<p style=\"font-size: 50px; margin: 0; text-align: center;\">+</p>","response":null,"trial_type":"html-keyboard-response","trial_index":182,"plugin_version":"2.1.0","time_elapsed":332262,"subject_id":"90323","group":"Group2","full_date":"2025-12-05T00:46:15.171Z","date":"2025-12-05","time":"00:46:15"},{"task":"memory_phase","broad_category":"M","image_png":"M_Slate_04.png","image_id":308,"category_name":"Slate","category":20,"distinct_rating":2.2,"distinct_type":"Bottom","rt":null,"stimulus":"Stimuli_Rocks480/M_Slate_04.png","response":null,"trial_type":"image-keyboard-response","trial_index":183,"plugin_version":"2.1.0","time_elapsed":334765,"subject_id":"90323","group":"Group2","full_date":"2025-12-05T00:46:15.171Z","date":"2025-12-05","time":"00:46:15"},{"rt":null,"stimulus":"<p style=\"font-size: 50px; margin: 0; text-align: center;\">+</p>","response":null,"trial_type":"html-keyboard-response","trial_index":184,"plugin_version":"2.1.0","time_elapsed":335768,"subject_id":"90323","group":"Group2","full_date":"2025-12-05T00:46:15.171Z","date":"2025-12-05","time":"00:46:15"},{"task":"memory_phase","broad_category":"S","image_png":"S_Rock Salt_15.png","image_id":447,"category_name":"Rock Salt","category":28,"distinct_rating":7.79,"distinct_type":"Top","rt":null,"stimulus":"Stimuli_Rocks480/S_Rock Salt_15.png","response":null,"trial_type":"image-keyboard-response","trial_index":185,"plugin_version":"2.1.0","time_elapsed":338272,"subject_id":"90323","group":"Group2","full_date":"2025-12-05T00:46:15.171Z","date":"2025-12-05","time":"00:46:15"},{"rt":null,"stimulus":"<p style=\"font-size: 50px; margin: 0; text-align: center;\">+</p>","response":null,"trial_type":"html-keyboard-response","trial_index":186,"plugin_version":"2.1.0","time_elapsed":339275,"subject_id":"90323","group":"Group2","full_date":"2025-12-05T00:46:15.171Z","date":"2025-12-05","time":"00:46:15"},{"task":"memory_phase","broad_category":"M","image_png":"M_Quartzite_15.png","image_id":287,"category_name":"Quartzite","category":18,"distinct_rating":2.19,"distinct_type":"Bottom","rt":null,"stimulus":"Stimuli_Rocks480/M_Quartzite_15.png","response":null,"trial_type":"image-keyboard-response","trial_index":187,"plugin_version":"2.1.0","time_elapsed":341779,"subject_id":"90323","group":"Group2","full_date":"2025-12-05T00:46:15.171Z","date":"2025-12-05","time":"00:46:15"},{"rt":null,"stimulus":"<p style=\"font-size: 50px; margin: 0; text-align: center;\">+</p>","response":null,"trial_type":"html-keyboard-response","trial_index":188,"plugin_version":"2.1.0","time_elapsed":342782,"subject_id":"90323","group":"Group2","full_date":"2025-12-05T00:46:15.171Z","date":"2025-12-05","time":"00:46:15"},{"task":"memory_phase","broad_category":"M","image_png":"M_Quartzite_07.png","image_id":279,"category_name":"Quartzite","category":18,"distinct_rating":1.97,"distinct_type":"Bottom","rt":null,"stimulus":"Stimuli_Rocks480/M_Quartzite_07.png","response":null,"trial_type":"image-keyboard-response","trial_index":189,"plugin_version":"2.1.0","time_elapsed":345287,"subject_id":"90323","group":"Group2","full_date":"2025-12-05T00:46:15.171Z","date":"2025-12-05","time":"00:46:15"},{"rt":null,"stimulus":"<p style=\"font-size: 50px; margin: 0; text-align: center;\">+</p>","response":null,"trial_type":"html-keyboard-response","trial_index":190,"plugin_version":"2.1.0","time_elapsed":346290,"subject_id":"90323","group":"Group2","full_date":"2025-12-05T00:46:15.171Z","date":"2025-12-05","time":"00:46:15"},{"task":"memory_phase","broad_category":"I","image_png":"I_Obsidian_06.png","image_id":86,"category_name":"Obsidian","category":6,"distinct_rating":8.01,"distinct_type":"Top","rt":null,"stimulus":"Stimuli_Rocks480/I_Obsidian_06.png","response":null,"trial_type":"image-keyboard-response","trial_index":191,"plugin_version":"2.1.0","time_elapsed":348794,"subject_id":"90323","group":"Group2","full_date":"2025-12-05T00:46:15.171Z","date":"2025-12-05","time":"00:46:15"},{"rt":null,"stimulus":"<p style=\"font-size: 50px; margin: 0; text-align: center;\">+</p>","response":null,"trial_type":"html-keyboard-response","trial_index":192,"plugin_version":"2.1.0","time_elapsed":349797,"subject_id":"90323","group":"Group2","full_date":"2025-12-05T00:46:15.171Z","date":"2025-12-05","time":"00:46:15"},{"task":"memory_phase","broad_category":"I","image_png":"I_Peridotite_13.png","image_id":125,"category_name":"Peridotite","category":8,"distinct_rating":7.28,"distinct_type":"Top","rt":null,"stimulus":"Stimuli_Rocks480/I_Peridotite_13.png","response":null,"trial_type":"image-keyboard-response","trial_index":193,"plugin_version":"2.1.0","time_elapsed":352301,"subject_id":"90323","group":"Group2","full_date":"2025-12-05T00:46:15.171Z","date":"2025-12-05","time":"00:46:15"},{"rt":null,"stimulus":"<p style=\"font-size: 50px; margin: 0; text-align: center;\">+</p>","response":null,"trial_type":"html-keyboard-response","trial_index":194,"plugin_version":"2.1.0","time_elapsed":353303,"subject_id":"90323","group":"Group2","full_date":"2025-12-05T00:46:15.171Z","date":"2025-12-05","time":"00:46:15"},{"task":"memory_phase","broad_category":"I","image_png":"I_Rhyolite_10.png","image_id":154,"category_name":"Rhyolite","category":10,"distinct_rating":2.88,"distinct_type":"Bottom","rt":null,"stimulus":"Stimuli_Rocks480/I_Rhyolite_10.png","response":null,"trial_type":"image-keyboard-response","trial_index":195,"plugin_version":"2.1.0","time_elapsed":355807,"subject_id":"90323","group":"Group2","full_date":"2025-12-05T00:46:15.171Z","date":"2025-12-05","time":"00:46:15"},{"rt":null,"stimulus":"<p style=\"font-size: 50px; margin: 0; text-align: center;\">+</p>","response":null,"trial_type":"html-keyboard-response","trial_index":196,"plugin_version":"2.1.0","time_elapsed":356810,"subject_id":"90323","group":"Group2","full_date":"2025-12-05T00:46:15.171Z","date":"2025-12-05","time":"00:46:15"},{"task":"memory_phase","broad_category":"I","image_png":"I_Basalt_13.png","image_id":29,"category_name":"Basalt","category":2,"distinct_rating":2.68,"distinct_type":"Bottom","rt":null,"stimulus":"Stimuli_Rocks480/I_Basalt_13.png","response":null,"trial_type":"image-keyboard-response","trial_index":197,"plugin_version":"2.1.0","time_elapsed":359314,"subject_id":"90323","group":"Group2","full_date":"2025-12-05T00:46:15.171Z","date":"2025-12-05","time":"00:46:15"},{"rt":null,"stimulus":"<p style=\"font-size: 50px; margin: 0; text-align: center;\">+</p>","response":null,"trial_type":"html-keyboard-response","trial_index":198,"plugin_version":"2.1.0","time_elapsed":360316,"subject_id":"90323","group":"Group2","full_date":"2025-12-05T00:46:15.171Z","date":"2025-12-05","time":"00:46:15"},{"task":"memory_phase","broad_category":"S","image_png":"S_Dolomite_07.png","image_id":391,"category_name":"Dolomite","category":25,"distinct_rating":1.73,"distinct_type":"Bottom","rt":null,"stimulus":"Stimuli_Rocks480/S_Dolomite_07.png","response":null,"trial_type":"image-keyboard-response","trial_index":199,"plugin_version":"2.1.0","time_elapsed":362820,"subject_id":"90323","group":"Group2","full_date":"2025-12-05T00:46:15.171Z","date":"2025-12-05","time":"00:46:15"},{"rt":null,"stimulus":"<p style=\"font-size: 50px; margin: 0; text-align: center;\">+</p>","response":null,"trial_type":"html-keyboard-response","trial_index":200,"plugin_version":"2.1.0","time_elapsed":363824,"subject_id":"90323","group":"Group2","full_date":"2025-12-05T00:46:15.171Z","date":"2025-12-05","time":"00:46:15"},{"task":"memory_phase","broad_category":"I","image_png":"I_Pegmatite_11.png","image_id":107,"category_name":"Pegmatite","category":7,"distinct_rating":7.11,"distinct_type":"Top","rt":null,"stimulus":"Stimuli_Rocks480/I_Pegmatite_11.png","response":null,"trial_type":"image-keyboard-response","trial_index":201,"plugin_version":"2.1.0","time_elapsed":366327,"subject_id":"90323","group":"Group2","full_date":"2025-12-05T00:46:15.171Z","date":"2025-12-05","time":"00:46:15"},{"rt":null,"stimulus":"<p style=\"font-size: 50px; margin: 0; text-align: center;\">+</p>","response":null,"trial_type":"html-keyboard-response","trial_index":202,"plugin_version":"2.1.0","time_elapsed":367330,"subject_id":"90323","group":"Group2","full_date":"2025-12-05T00:46:15.171Z","date":"2025-12-05","time":"00:46:15"},{"task":"memory_phase","broad_category":"S","image_png":"S_Shale_07.png","image_id":471,"category_name":"Shale","category":30,"distinct_rating":2.73,"distinct_type":"Bottom","rt":null,"stimulus":"Stimuli_Rocks480/S_Shale_07.png","response":null,"trial_type":"image-keyboard-response","trial_index":203,"plugin_version":"2.1.0","time_elapsed":369834,"subject_id":"90323","group":"Group2","full_date":"2025-12-05T00:46:15.171Z","date":"2025-12-05","time":"00:46:15"},{"rt":null,"stimulus":"<p style=\"font-size: 50px; margin: 0; text-align: center;\">+</p>","response":null,"trial_type":"html-keyboard-response","trial_index":204,"plugin_version":"2.1.0","time_elapsed":370838,"subject_id":"90323","group":"Group2","full_date":"2025-12-05T00:46:15.171Z","date":"2025-12-05","time":"00:46:15"},{"task":"memory_phase","broad_category":"M","image_png":"M_Slate_10.png","image_id":314,"category_name":"Slate","category":20,"distinct_rating":1.94,"distinct_type":"Bottom","rt":null,"stimulus":"Stimuli_Rocks480/M_Slate_10.png","response":null,"trial_type":"image-keyboard-response","trial_index":205,"plugin_version":"2.1.0","time_elapsed":373341,"subject_id":"90323","group":"Group2","full_date":"2025-12-05T00:46:15.171Z","date":"2025-12-05","time":"00:46:15"},{"rt":null,"stimulus":"<p style=\"font-size: 50px; margin: 0; text-align: center;\">+</p>","response":null,"trial_type":"html-keyboard-response","trial_index":206,"plugin_version":"2.1.0","time_elapsed":374344,"subject_id":"90323","group":"Group2","full_date":"2025-12-05T00:46:15.171Z","date":"2025-12-05","time":"00:46:15"},{"task":"memory_phase","broad_category":"I","image_png":"I_Pumice_14.png","image_id":142,"category_name":"Pumice","category":9,"distinct_rating":3.22,"distinct_type":"Bottom","rt":null,"stimulus":"Stimuli_Rocks480/I_Pumice_14.png","response":null,"trial_type":"image-keyboard-response","trial_index":207,"plugin_version":"2.1.0","time_elapsed":376848,"subject_id":"90323","group":"Group2","full_date":"2025-12-05T00:46:15.171Z","date":"2025-12-05","time":"00:46:15"},{"rt":1021,"stimulus":"<p style=\"max-width: 760px; margin: auto; font-size: 35px; line-height: 1.5;\">You have completed 2 study phases. Now, we'll show you all the images again 1 more time.<br><br>Press SPACE to continue</p>","response":" ","trial_type":"html-keyboard-response","trial_index":208,"plugin_version":"2.1.0","time_elapsed":377870,"subject_id":"90323","group":"Group2","full_date":"2025-12-05T00:46:15.171Z","date":"2025-12-05","time":"00:46:15"},{"rt":null,"stimulus":"<p style=\"font-size: 50px; margin: 0; text-align: center;\">+</p>","response":null,"trial_type":"html-keyboard-response","trial_index":209,"plugin_version":"2.1.0","time_elapsed":378873,"subject_id":"90323","group":"Group2","full_date":"2025-12-05T00:46:15.171Z","date":"2025-12-05","time":"00:46:15"},{"task":"memory_phase","broad_category":"I","image_png":"I_Andesite_04.png","image_id":4,"category_name":"Andesite","category":1,"distinct_rating":3.18,"distinct_type":"Bottom","rt":null,"stimulus":"Stimuli_Rocks480/I_Andesite_04.png","response":null,"trial_type":"image-keyboard-response","trial_index":210,"plugin_version":"2.1.0","time_elapsed":381378,"subject_id":"90323","group":"Group2","full_date":"2025-12-05T00:46:15.171Z","date":"2025-12-05","time":"00:46:15"},{"rt":null,"stimulus":"<p style=\"font-size: 50px; margin: 0; text-align: center;\">+</p>","response":null,"trial_type":"html-keyboard-response","trial_index":211,"plugin_version":"2.1.0","time_elapsed":382381,"subject_id":"90323","group":"Group2","full_date":"2025-12-05T00:46:15.171Z","date":"2025-12-05","time":"00:46:15"},{"task":"memory_phase","broad_category":"M","image_png":"M_Slate_04.png","image_id":308,"category_name":"Slate","category":20,"distinct_rating":2.2,"distinct_type":"Bottom","rt":null,"stimulus":"Stimuli_Rocks480/M_Slate_04.png","response":null,"trial_type":"image-keyboard-response","trial_index":212,"plugin_version":"2.1.0","time_elapsed":384885,"subject_id":"90323","group":"Group2","full_date":"2025-12-05T00:46:15.171Z","date":"2025-12-05","time":"00:46:15"},{"rt":null,"stimulus":"<p style=\"font-size: 50px; margin: 0; text-align: center;\">+</p>","response":null,"trial_type":"html-keyboard-response","trial_index":213,"plugin_version":"2.1.0","time_elapsed":385889,"subject_id":"90323","group":"Group2","full_date":"2025-12-05T00:46:15.171Z","date":"2025-12-05","time":"00:46:15"},{"task":"memory_phase","broad_category":"M","image_png":"M_Marble_03.png","image_id":227,"category_name":"Marble","category":15,"distinct_rating":2.67,"distinct_type":"Bottom","rt":null,"stimulus":"Stimuli_Rocks480/M_Marble_03.png","response":null,"trial_type":"image-keyboard-response","trial_index":214,"plugin_version":"2.1.0","time_elapsed":388393,"subject_id":"90323","group":"Group2","full_date":"2025-12-05T00:46:15.171Z","date":"2025-12-05","time":"00:46:15"},{"rt":null,"stimulus":"<p style=\"font-size: 50px; margin: 0; text-align: center;\">+</p>","response":null,"trial_type":"html-keyboard-response","trial_index":215,"plugin_version":"2.1.0","time_elapsed":389395,"subject_id":"90323","group":"Group2","full_date":"2025-12-05T00:46:15.171Z","date":"2025-12-05","time":"00:46:15"},{"task":"memory_phase","broad_category":"S","image_png":"S_Dolomite_16.png","image_id":400,"category_name":"Dolomite","category":25,"distinct_rating":1.71,"distinct_type":"Bottom","rt":null,"stimulus":"Stimuli_Rocks480/S_Dolomite_16.png","response":null,"trial_type":"image-keyboard-response","trial_index":216,"plugin_version":"2.1.0","time_elapsed":391899,"subject_id":"90323","group":"Group2","full_date":"2025-12-05T00:46:15.171Z","date":"2025-12-05","time":"00:46:15"},{"rt":null,"stimulus":"<p style=\"font-size: 50px; margin: 0; text-align: center;\">+</p>","response":null,"trial_type":"html-keyboard-response","trial_index":217,"plugin_version":"2.1.0","time_elapsed":392902,"subject_id":"90323","group":"Group2","full_date":"2025-12-05T00:46:15.171Z","date":"2025-12-05","time":"00:46:15"},{"task":"memory_phase","broad_category":"I","image_png":"I_Basalt_08.png","image_id":24,"category_name":"Basalt","category":2,"distinct_rating":2.31,"distinct_type":"Bottom","rt":null,"stimulus":"Stimuli_Rocks480/I_Basalt_08.png","response":null,"trial_type":"image-keyboard-response","trial_index":218,"plugin_version":"2.1.0","time_elapsed":395406,"subject_id":"90323","group":"Group2","full_date":"2025-12-05T00:46:15.171Z","date":"2025-12-05","time":"00:46:15"},{"rt":null,"stimulus":"<p style=\"font-size: 50px; margin: 0; text-align: center;\">+</p>","response":null,"trial_type":"html-keyboard-response","trial_index":219,"plugin_version":"2.1.0","time_elapsed":396409,"subject_id":"90323","group":"Group2","full_date":"2025-12-05T00:46:15.171Z","date":"2025-12-05","time":"00:46:15"},{"task":"memory_phase","broad_category":"I","image_png":"I_Obsidian_06.png","image_id":86,"category_name":"Obsidian","category":6,"distinct_rating":8.01,"distinct_type":"Top","rt":null,"stimulus":"Stimuli_Rocks480/I_Obsidian_06.png","response":null,"trial_type":"image-keyboard-response","trial_index":220,"plugin_version":"2.1.0","time_elapsed":398912,"subject_id":"90323","group":"Group2","full_date":"2025-12-05T00:46:15.171Z","date":"2025-12-05","time":"00:46:15"},{"rt":null,"stimulus":"<p style=\"font-size: 50px; margin: 0; text-align: center;\">+</p>","response":null,"trial_type":"html-keyboard-response","trial_index":221,"plugin_version":"2.1.0","time_elapsed":399914,"subject_id":"90323","group":"Group2","full_date":"2025-12-05T00:46:15.171Z","date":"2025-12-05","time":"00:46:15"},{"task":"memory_phase","broad_category":"I","image_png":"I_Peridotite_13.png","image_id":125,"category_name":"Peridotite","category":8,"distinct_rating":7.28,"distinct_type":"Top","rt":null,"stimulus":"Stimuli_Rocks480/I_Peridotite_13.png","response":null,"trial_type":"image-keyboard-response","trial_index":222,"plugin_version":"2.1.0","time_elapsed":402418,"subject_id":"90323","group":"Group2","full_date":"2025-12-05T00:46:15.171Z","date":"2025-12-05","time":"00:46:15"},{"rt":null,"stimulus":"<p style=\"font-size: 50px; margin: 0; text-align: center;\">+</p>","response":null,"trial_type":"html-keyboard-response","trial_index":223,"plugin_version":"2.1.0","time_elapsed":403420,"subject_id":"90323","group":"Group2","full_date":"2025-12-05T00:46:15.171Z","date":"2025-12-05","time":"00:46:15"},{"task":"memory_phase","broad_category":"S","image_png":"S_Shale_02.png","image_id":466,"category_name":"Shale","category":30,"distinct_rating":2.9,"distinct_type":"Bottom","rt":null,"stimulus":"Stimuli_Rocks480/S_Shale_02.png","response":null,"trial_type":"image-keyboard-response","trial_index":224,"plugin_version":"2.1.0","time_elapsed":405924,"subject_id":"90323","group":"Group2","full_date":"2025-12-05T00:46:15.171Z","date":"2025-12-05","time":"00:46:15"},{"rt":null,"stimulus":"<p style=\"font-size: 50px; margin: 0; text-align: center;\">+</p>","response":null,"trial_type":"html-keyboard-response","trial_index":225,"plugin_version":"2.1.0","time_elapsed":406927,"subject_id":"90323","group":"Group2","full_date":"2025-12-05T00:46:15.171Z","date":"2025-12-05","time":"00:46:15"},{"task":"memory_phase","broad_category":"S","image_png":"S_Rock Salt_13.png","image_id":445,"category_name":"Rock Salt","category":28,"distinct_rating":7.58,"distinct_type":"Top","rt":null,"stimulus":"Stimuli_Rocks480/S_Rock Salt_13.png","response":null,"trial_type":"image-keyboard-response","trial_index":226,"plugin_version":"2.1.0","time_elapsed":409430,"subject_id":"90323","group":"Group2","full_date":"2025-12-05T00:46:15.171Z","date":"2025-12-05","time":"00:46:15"},{"rt":null,"stimulus":"<p style=\"font-size: 50px; margin: 0; text-align: center;\">+</p>","response":null,"trial_type":"html-keyboard-response","trial_index":227,"plugin_version":"2.1.0","time_elapsed":410433,"subject_id":"90323","group":"Group2","full_date":"2025-12-05T00:46:15.171Z","date":"2025-12-05","time":"00:46:15"},{"task":"memory_phase","broad_category":"I","image_png":"I_Basalt_13.png","image_id":29,"category_name":"Basalt","category":2,"distinct_rating":2.68,"distinct_type":"Bottom","rt":null,"stimulus":"Stimuli_Rocks480/I_Basalt_13.png","response":null,"trial_type":"image-keyboard-response","trial_index":228,"plugin_version":"2.1.0","time_elapsed":412936,"subject_id":"90323","group":"Group2","full_date":"2025-12-05T00:46:15.171Z","date":"2025-12-05","time":"00:46:15"},{"rt":null,"stimulus":"<p style=\"font-size: 50px; margin: 0; text-align: center;\">+</p>","response":null,"trial_type":"html-keyboard-response","trial_index":229,"plugin_version":"2.1.0","time_elapsed":413938,"subject_id":"90323","group":"Group2","full_date":"2025-12-05T00:46:15.171Z","date":"2025-12-05","time":"00:46:15"},{"task":"memory_phase","broad_category":"I","image_png":"I_Rhyolite_05.png","image_id":149,"category_name":"Rhyolite","category":10,"distinct_rating":3.02,"distinct_type":"Bottom","rt":null,"stimulus":"Stimuli_Rocks480/I_Rhyolite_05.png","response":null,"trial_type":"image-keyboard-response","trial_index":230,"plugin_version":"2.1.0","time_elapsed":416442,"subject_id":"90323","group":"Group2","full_date":"2025-12-05T00:46:15.171Z","date":"2025-12-05","time":"00:46:15"},{"rt":null,"stimulus":"<p style=\"font-size: 50px; margin: 0; text-align: center;\">+</p>","response":null,"trial_type":"html-keyboard-response","trial_index":231,"plugin_version":"2.1.0","time_elapsed":417445,"subject_id":"90323","group":"Group2","full_date":"2025-12-05T00:46:15.171Z","date":"2025-12-05","time":"00:46:15"},{"task":"memory_phase","broad_category":"I","image_png":"I_Diorite_15.png","image_id":47,"category_name":"Diorite","category":3,"distinct_rating":3.05,"distinct_type":"Bottom","rt":null,"stimulus":"Stimuli_Rocks480/I_Diorite_15.png","response":null,"trial_type":"image-keyboard-response","trial_index":232,"plugin_version":"2.1.0","time_elapsed":419949,"subject_id":"90323","group":"Group2","full_date":"2025-12-05T00:46:15.171Z","date":"2025-12-05","time":"00:46:15"},{"rt":null,"stimulus":"<p style=\"font-size: 50px; margin: 0; text-align: center;\">+</p>","response":null,"trial_type":"html-keyboard-response","trial_index":233,"plugin_version":"2.1.0","time_elapsed":420952,"subject_id":"90323","group":"Group2","full_date":"2025-12-05T00:46:15.171Z","date":"2025-12-05","time":"00:46:15"},{"task":"memory_phase","broad_category":"M","image_png":"M_Phyllite_05.png","image_id":261,"category_name":"Phyllite","category":17,"distinct_rating":2.14,"distinct_type":"Bottom","rt":null,"stimulus":"Stimuli_Rocks480/M_Phyllite_05.png","response":null,"trial_type":"image-keyboard-response","trial_index":234,"plugin_version":"2.1.0","time_elapsed":423456,"subject_id":"90323","group":"Group2","full_date":"2025-12-05T00:46:15.171Z","date":"2025-12-05","time":"00:46:15"},{"rt":null,"stimulus":"<p style=\"font-size: 50px; margin: 0; text-align: center;\">+</p>","response":null,"trial_type":"html-keyboard-response","trial_index":235,"plugin_version":"2.1.0","time_elapsed":424459,"subject_id":"90323","group":"Group2","full_date":"2025-12-05T00:46:15.171Z","date":"2025-12-05","time":"00:46:15"},{"task":"memory_phase","broad_category":"I","image_png":"I_Pumice_14.png","image_id":142,"category_name":"Pumice","category":9,"distinct_rating":3.22,"distinct_type":"Bottom","rt":null,"stimulus":"Stimuli_Rocks480/I_Pumice_14.png","response":null,"trial_type":"image-keyboard-response","trial_index":236,"plugin_version":"2.1.0","time_elapsed":426963,"subject_id":"90323","group":"Group2","full_date":"2025-12-05T00:46:15.171Z","date":"2025-12-05","time":"00:46:15"},{"rt":null,"stimulus":"<p style=\"font-size: 50px; margin: 0; text-align: center;\">+</p>","response":null,"trial_type":"html-keyboard-response","trial_index":237,"plugin_version":"2.1.0","time_elapsed":427966,"subject_id":"90323","group":"Group2","full_date":"2025-12-05T00:46:15.171Z","date":"2025-12-05","time":"00:46:15"},{"task":"memory_phase","broad_category":"I","image_png":"I_Andesite_03.png","image_id":3,"category_name":"Andesite","category":1,"distinct_rating":3.17,"distinct_type":"Bottom","rt":null,"stimulus":"Stimuli_Rocks480/I_Andesite_03.png","response":null,"trial_type":"image-keyboard-response","trial_index":238,"plugin_version":"2.1.0","time_elapsed":430470,"subject_id":"90323","group":"Group2","full_date":"2025-12-05T00:46:15.171Z","date":"2025-12-05","time":"00:46:15"},{"rt":null,"stimulus":"<p style=\"font-size: 50px; margin: 0; text-align: center;\">+</p>","response":null,"trial_type":"html-keyboard-response","trial_index":239,"plugin_version":"2.1.0","time_elapsed":431473,"subject_id":"90323","group":"Group2","full_date":"2025-12-05T00:46:15.171Z","date":"2025-12-05","time":"00:46:15"},{"task":"memory_phase","broad_category":"S","image_png":"S_Conglomerate_14.png","image_id":382,"category_name":"Conglomerate","category":24,"distinct_rating":6.86,"distinct_type":"Top","rt":null,"stimulus":"Stimuli_Rocks480/S_Conglomerate_14.png","response":null,"trial_type":"image-keyboard-response","trial_index":240,"plugin_version":"2.1.0","time_elapsed":433977,"subject_id":"90323","group":"Group2","full_date":"2025-12-05T00:46:15.171Z","date":"2025-12-05","time":"00:46:15"},{"rt":null,"stimulus":"<p style=\"font-size: 50px; margin: 0; text-align: center;\">+</p>","response":null,"trial_type":"html-keyboard-response","trial_index":241,"plugin_version":"2.1.0","time_elapsed":434979,"subject_id":"90323","group":"Group2","full_date":"2025-12-05T00:46:15.171Z","date":"2025-12-05","time":"00:46:15"},{"task":"memory_phase","broad_category":"S","image_png":"S_Sandstone_04.png","image_id":452,"category_name":"Sandstone","category":29,"distinct_rating":1.8,"distinct_type":"Bottom","rt":null,"stimulus":"Stimuli_Rocks480/S_Sandstone_04.png","response":null,"trial_type":"image-keyboard-response","trial_index":242,"plugin_version":"2.1.0","time_elapsed":437483,"subject_id":"90323","group":"Group2","full_date":"2025-12-05T00:46:15.171Z","date":"2025-12-05","time":"00:46:15"},{"rt":null,"stimulus":"<p style=\"font-size: 50px; margin: 0; text-align: center;\">+</p>","response":null,"trial_type":"html-keyboard-response","trial_index":243,"plugin_version":"2.1.0","time_elapsed":438486,"subject_id":"90323","group":"Group2","full_date":"2025-12-05T00:46:15.171Z","date":"2025-12-05","time":"00:46:15"},{"task":"memory_phase","broad_category":"M","image_png":"M_Gneiss_10.png","image_id":202,"category_name":"Gneiss","category":13,"distinct_rating":3.09,"distinct_type":"Bottom","rt":null,"stimulus":"Stimuli_Rocks480/M_Gneiss_10.png","response":null,"trial_type":"image-keyboard-response","trial_index":244,"plugin_version":"2.1.0","time_elapsed":440991,"subject_id":"90323","group":"Group2","full_date":"2025-12-05T00:46:15.171Z","date":"2025-12-05","time":"00:46:15"},{"rt":null,"stimulus":"<p style=\"font-size: 50px; margin: 0; text-align: center;\">+</p>","response":null,"trial_type":"html-keyboard-response","trial_index":245,"plugin_version":"2.1.0","time_elapsed":441994,"subject_id":"90323","group":"Group2","full_date":"2025-12-05T00:46:15.171Z","date":"2025-12-05","time":"00:46:15"},{"task":"memory_phase","broad_category":"I","image_png":"I_Andesite_09.png","image_id":9,"category_name":"Andesite","category":1,"distinct_rating":2.49,"distinct_type":"Bottom","rt":null,"stimulus":"Stimuli_Rocks480/I_Andesite_09.png","response":null,"trial_type":"image-keyboard-response","trial_index":246,"plugin_version":"2.1.0","time_elapsed":444497,"subject_id":"90323","group":"Group2","full_date":"2025-12-05T00:46:15.171Z","date":"2025-12-05","time":"00:46:15"},{"rt":null,"stimulus":"<p style=\"font-size: 50px; margin: 0; text-align: center;\">+</p>","response":null,"trial_type":"html-keyboard-response","trial_index":247,"plugin_version":"2.1.0","time_elapsed":445500,"subject_id":"90323","group":"Group2","full_date":"2025-12-05T00:46:15.171Z","date":"2025-12-05","time":"00:46:15"},{"task":"memory_phase","broad_category":"I","image_png":"I_Gabbro_14.png","image_id":62,"category_name":"Gabbro","category":4,"distinct_rating":2.95,"distinct_type":"Bottom","rt":null,"stimulus":"Stimuli_Rocks480/I_Gabbro_14.png","response":null,"trial_type":"image-keyboard-response","trial_index":248,"plugin_version":"2.1.0","time_elapsed":448004,"subject_id":"90323","group":"Group2","full