[{"width":1358,"height":612,"webaudio":true,"browser":"edge-chromium","browser_version":"142.0.0","mobile":false,"os":"Windows 10","fullscreen":true,"vsync_rate":59.87,"webcam":true,"microphone":true,"trial_type":"browser-check","trial_index":0,"plugin_version":"2.1.0","time_elapsed":1028,"subject_id":"90156","group":"Group2","full_date":"2025-11-29T00:19:56.689Z","date":"2025-11-29","time":"00:19:56"},{"success":true,"timeout":false,"failed_images":[],"failed_audio":[],"failed_video":[],"trial_type":"preload","trial_index":1,"plugin_version":"2.1.0","time_elapsed":2080,"subject_id":"90156","group":"Group2","full_date":"2025-11-29T00:19:56.689Z","date":"2025-11-29","time":"00:19:56"},{"rt":151355381,"url":"SONA_consent_memorability.html","trial_type":"external-html","trial_index":2,"plugin_version":"2.1.0","time_elapsed":151357499,"subject_id":"90156","group":"Group2","full_date":"2025-11-29T00:19:56.689Z","date":"2025-11-29","time":"00:19:56"},{"success":true,"rt":2743,"trial_type":"fullscreen","trial_index":3,"plugin_version":"2.1.0","time_elapsed":151361430,"subject_id":"90156","group":"Group2","full_date":"2025-11-29T00:19:56.689Z","date":"2025-11-29","time":"00:19:56"},{"rt":6167,"stimulus":"<div style=\"max-width: 760px; margin: auto; font-size: 20px; line-height: 1.5;\">\n      <h1 style=\"text-align:center; font-size: 30px;\">Instructions</h1>\n      <p>\n        Welcome to the study on <b>visual memory</b>. This experiment consists of <b>two phases</b>: \n        a <b>study phase</b> and a <b>test phase</b>.\n      </p>\n      <p>\n        In the study phase, you will see a series of rock images along with their category labels.\n        The images will appear one at a time.\n        <b>Your task</b> is to learn the categories to which the rock images belong \n        and to remember each image as accurately as possible.\n      </p> \n      <p>\n        Note that we will repeat the study phase <b>3 times</b>, \n        so you will have multiple opportunities to see and remember each image.\n      </p>\n      <p>\n        After the study phase, <b>your memory will be tested</b>. \n        Additional instructions for the test phase will be provided at that time.\n      </p>\n      <p>\n        If your computer has multiple <b>language settings</b> (e.g., English and another language),\n        please make sure it is set to English before starting.\n      </p>\n      <p>\n        You can track your progress using the <b>completion bar</b> at the top of the screen. \n        Please note that the bar will refresh when the test phase begins \n        to give you an accurate sense of your progress in both phases.\n      </p> \n      <p>\n        Press the button below when you are ready to begin.\n      </p>\n    </div>","response":0,"trial_type":"html-button-response","trial_index":4,"plugin_version":"2.1.0","time_elapsed":151367609,"subject_id":"90156","group":"Group2","full_date":"2025-11-29T00:19:56.689Z","date":"2025-11-29","time":"00:19:56"},{"rt":null,"stimulus":"<p style=\"font-size: 50px; margin: 0; text-align: center;\">+</p>","response":null,"trial_type":"html-keyboard-response","trial_index":5,"plugin_version":"2.1.0","time_elapsed":151368625,"subject_id":"90156","group":"Group2","full_date":"2025-11-29T00:19:56.689Z","date":"2025-11-29","time":"00:19:56"},{"task":"memory_phase","broad_category":"S","image_png":"S_Sandstone_04.png","image_id":452,"category_name":"Sandstone","category":29,"distinct_rating":1.8,"distinct_type":"Bottom","rt":null,"stimulus":"Stimuli_Rocks480/S_Sandstone_04.png","response":null,"trial_type":"image-keyboard-response","trial_index":6,"plugin_version":"2.1.0","time_elapsed":151371211,"subject_id":"90156","group":"Group2","full_date":"2025-11-29T00:19:56.689Z","date":"2025-11-29","time":"00:19:56"},{"rt":null,"stimulus":"<p style=\"font-size: 50px; margin: 0; text-align: center;\">+</p>","response":null,"trial_type":"html-keyboard-response","trial_index":7,"plugin_version":"2.1.0","time_elapsed":151372222,"subject_id":"90156","group":"Group2","full_date":"2025-11-29T00:19:56.689Z","date":"2025-11-29","time":"00:19:56"},{"task":"memory_phase","broad_category":"S","image_png":"S_Dolomite_16.png","image_id":400,"category_name":"Dolomite","category":25,"distinct_rating":1.71,"distinct_type":"Bottom","rt":null,"stimulus":"Stimuli_Rocks480/S_Dolomite_16.png","response":null,"trial_type":"image-keyboard-response","trial_index":8,"plugin_version":"2.1.0","time_elapsed":151374733,"subject_id":"90156","group":"Group2","full_date":"2025-11-29T00:19:56.689Z","date":"2025-11-29","time":"00:19:56"},{"rt":null,"stimulus":"<p style=\"font-size: 50px; margin: 0; text-align: center;\">+</p>","response":null,"trial_type":"html-keyboard-response","trial_index":9,"plugin_version":"2.1.0","time_elapsed":151375749,"subject_id":"90156","group":"Group2","full_date":"2025-11-29T00:19:56.689Z","date":"2025-11-29","time":"00:19:56"},{"task":"memory_phase","broad_category":"I","image_png":"I_Pumice_13.png","image_id":141,"category_name":"Pumice","category":9,"distinct_rating":3.12,"distinct_type":"Bottom","rt":null,"stimulus":"Stimuli_Rocks480/I_Pumice_13.png","response":null,"trial_type":"image-keyboard-response","trial_index":10,"plugin_version":"2.1.0","time_elapsed":151378264,"subject_id":"90156","group":"Group2","full_date":"2025-11-29T00:19:56.689Z","date":"2025-11-29","time":"00:19:56"},{"rt":null,"stimulus":"<p style=\"font-size: 50px; margin: 0; text-align: center;\">+</p>","response":null,"trial_type":"html-keyboard-response","trial_index":11,"plugin_version":"2.1.0","time_elapsed":151379280,"subject_id":"90156","group":"Group2","full_date":"2025-11-29T00:19:56.689Z","date":"2025-11-29","time":"00:19:56"},{"task":"memory_phase","broad_category":"I","image_png":"I_Diorite_01.png","image_id":33,"category_name":"Diorite","category":3,"distinct_rating":2.97,"distinct_type":"Bottom","rt":null,"stimulus":"Stimuli_Rocks480/I_Diorite_01.png","response":null,"trial_type":"image-keyboard-response","trial_index":12,"plugin_version":"2.1.0","time_elapsed":151381788,"subject_id":"90156","group":"Group2","full_date":"2025-11-29T00:19:56.689Z","date":"2025-11-29","time":"00:19:56"},{"rt":null,"stimulus":"<p style=\"font-size: 50px; margin: 0; text-align: center;\">+</p>","response":null,"trial_type":"html-keyboard-response","trial_index":13,"plugin_version":"2.1.0","time_elapsed":151382800,"subject_id":"90156","group":"Group2","full_date":"2025-11-29T00:19:56.689Z","date":"2025-11-29","time":"00:19:56"},{"task":"memory_phase","broad_category":"I","image_png":"I_Pegmatite_11.png","image_id":107,"category_name":"Pegmatite","category":7,"distinct_rating":7.11,"distinct_type":"Top","rt":null,"stimulus":"Stimuli_Rocks480/I_Pegmatite_11.png","response":null,"trial_type":"image-keyboard-response","trial_index":14,"plugin_version":"2.1.0","time_elapsed":151385308,"subject_id":"90156","group":"Group2","full_date":"2025-11-29T00:19:56.689Z","date":"2025-11-29","time":"00:19:56"},{"rt":null,"stimulus":"<p style=\"font-size: 50px; margin: 0; text-align: center;\">+</p>","response":null,"trial_type":"html-keyboard-response","trial_index":15,"plugin_version":"2.1.0","time_elapsed":151386323,"subject_id":"90156","group":"Group2","full_date":"2025-11-29T00:19:56.689Z","date":"2025-11-29","time":"00:19:56"},{"task":"memory_phase","broad_category":"I","image_png":"I_Diorite_15.png","image_id":47,"category_name":"Diorite","category":3,"distinct_rating":3.05,"distinct_type":"Bottom","rt":null,"stimulus":"Stimuli_Rocks480/I_Diorite_15.png","response":null,"trial_type":"image-keyboard-response","trial_index":16,"plugin_version":"2.1.0","time_elapsed":151388828,"subject_id":"90156","group":"Group2","full_date":"2025-11-29T00:19:56.689Z","date":"2025-11-29","time":"00:19:56"},{"rt":null,"stimulus":"<p style=\"font-size: 50px; margin: 0; text-align: center;\">+</p>","response":null,"trial_type":"html-keyboard-response","trial_index":17,"plugin_version":"2.1.0","time_elapsed":151389839,"subject_id":"90156","group":"Group2","full_date":"2025-11-29T00:19:56.689Z","date":"2025-11-29","time":"00:19:56"},{"task":"memory_phase","broad_category":"I","image_png":"I_Basalt_08.png","image_id":24,"category_name":"Basalt","category":2,"distinct_rating":2.31,"distinct_type":"Bottom","rt":null,"stimulus":"Stimuli_Rocks480/I_Basalt_08.png","response":null,"trial_type":"image-keyboard-response","trial_index":18,"plugin_version":"2.1.0","time_elapsed":151392355,"subject_id":"90156","group":"Group2","full_date":"2025-11-29T00:19:56.689Z","date":"2025-11-29","time":"00:19:56"},{"rt":null,"stimulus":"<p style=\"font-size: 50px; margin: 0; text-align: center;\">+</p>","response":null,"trial_type":"html-keyboard-response","trial_index":19,"plugin_version":"2.1.0","time_elapsed":151393367,"subject_id":"90156","group":"Group2","full_date":"2025-11-29T00:19:56.689Z","date":"2025-11-29","time":"00:19:56"},{"task":"memory_phase","broad_category":"M","image_png":"M_Slate_10.png","image_id":314,"category_name":"Slate","category":20,"distinct_rating":1.94,"distinct_type":"Bottom","rt":null,"stimulus":"Stimuli_Rocks480/M_Slate_10.png","response":null,"trial_type":"image-keyboard-response","trial_index":20,"plugin_version":"2.1.0","time_elapsed":151395880,"subject_id":"90156","group":"Group2","full_date":"2025-11-29T00:19:56.689Z","date":"2025-11-29","time":"00:19:56"},{"rt":null,"stimulus":"<p style=\"font-size: 50px; margin: 0; text-align: center;\">+</p>","response":null,"trial_type":"html-keyboard-response","trial_index":21,"plugin_version":"2.1.0","time_elapsed":151396889,"subject_id":"90156","group":"Group2","full_date":"2025-11-29T00:19:56.689Z","date":"2025-11-29","time":"00:19:56"},{"task":"memory_phase","broad_category":"I","image_png":"I_Diorite_10.png","image_id":42,"category_name":"Diorite","category":3,"distinct_rating":2.84,"distinct_type":"Bottom","rt":null,"stimulus":"Stimuli_Rocks480/I_Diorite_10.png","response":null,"trial_type":"image-keyboard-response","trial_index":22,"plugin_version":"2.1.0","time_elapsed":151399402,"subject_id":"90156","group":"Group2","full_date":"2025-11-29T00:19:56.689Z","date":"2025-11-29","time":"00:19:56"},{"rt":null,"stimulus":"<p style=\"font-size: 50px; margin: 0; text-align: center;\">+</p>","response":null,"trial_type":"html-keyboard-response","trial_index":23,"plugin_version":"2.1.0","time_elapsed":151400413,"subject_id":"90156","group":"Group2","full_date":"2025-11-29T00:19:56.689Z","date":"2025-11-29","time":"00:19:56"},{"task":"memory_phase","broad_category":"M","image_png":"M_Slate_14.png","image_id":318,"category_name":"Slate","category":20,"distinct_rating":2.58,"distinct_type":"Bottom","rt":null,"stimulus":"Stimuli_Rocks480/M_Slate_14.png","response":null,"trial_type":"image-keyboard-response","trial_index":24,"plugin_version":"2.1.0","time_elapsed":151402928,"subject_id":"90156","group":"Group2","full_date":"2025-11-29T00:19:56.689Z","date":"2025-11-29","time":"00:19:56"},{"rt":null,"stimulus":"<p style=\"font-size: 50px; margin: 0; text-align: center;\">+</p>","response":null,"trial_type":"html-keyboard-response","trial_index":25,"plugin_version":"2.1.0","time_elapsed":151403939,"subject_id":"90156","group":"Group2","full_date":"2025-11-29T00:19:56.689Z","date":"2025-11-29","time":"00:19:56"},{"task":"memory_phase","broad_category":"M","image_png":"M_Phyllite_02.png","image_id":258,"category_name":"Phyllite","category":17,"distinct_rating":2.89,"distinct_type":"Bottom","rt":null,"stimulus":"Stimuli_Rocks480/M_Phyllite_02.png","response":null,"trial_type":"image-keyboard-response","trial_index":26,"plugin_version":"2.1.0","time_elapsed":151406446,"subject_id":"90156","group":"Group2","full_date":"2025-11-29T00:19:56.689Z","date":"2025-11-29","time":"00:19:56"},{"rt":null,"stimulus":"<p style=\"font-size: 50px; margin: 0; text-align: center;\">+</p>","response":null,"trial_type":"html-keyboard-response","trial_index":27,"plugin_version":"2.1.0","time_elapsed":151407462,"subject_id":"90156","group":"Group2","full_date":"2025-11-29T00:19:56.689Z","date":"2025-11-29","time":"00:19:56"},{"task":"memory_phase","broad_category":"I","image_png":"I_Andesite_09.png","image_id":9,"category_name":"Andesite","category":1,"distinct_rating":2.49,"distinct_type":"Bottom","rt":null,"stimulus":"Stimuli_Rocks480/I_Andesite_09.png","response":null,"trial_type":"image-keyboard-response","trial_index":28,"plugin_version":"2.1.0","time_elapsed":151411826,"subject_id":"90156","group":"Group2","full_date":"2025-11-29T00:19:56.689Z","date":"2025-11-29","time":"00:19:56"},{"rt":null,"stimulus":"<p style=\"font-size: 50px; margin: 0; text-align: center;\">+</p>","response":null,"trial_type":"html-keyboard-response","trial_index":29,"plugin_version":"2.1.0","time_elapsed":151412840,"subject_id":"90156","group":"Group2","full_date":"2025-11-29T00:19:56.689Z","date":"2025-11-29","time":"00:19:56"},{"task":"memory_phase","broad_category":"S","image_png":"S_Sandstone_08.png","image_id":456,"category_name":"Sandstone","category":29,"distinct_rating":1.5,"distinct_type":"Bottom","rt":null,"stimulus":"Stimuli_Rocks480/S_Sandstone_08.png","response":null,"trial_type":"image-keyboard-response","trial_index":30,"plugin_version":"2.1.0","time_elapsed":151415348,"subject_id":"90156","group":"Group2","full_date":"2025-11-29T00:19:56.689Z","date":"2025-11-29","time":"00:19:56"},{"rt":null,"stimulus":"<p style=\"font-size: 50px; margin: 0; text-align: center;\">+</p>","response":null,"trial_type":"html-keyboard-response","trial_index":31,"plugin_version":"2.1.0","time_elapsed":151416358,"subject_id":"90156","group":"Group2","full_date":"2025-11-29T00:19:56.689Z","date":"2025-11-29","time":"00:19:56"},{"task":"memory_phase","broad_category":"M","image_png":"M_Gneiss_14.png","image_id":206,"category_name":"Gneiss","category":13,"distinct_rating":3.41,"distinct_type":"Bottom","rt":null,"stimulus":"Stimuli_Rocks480/M_Gneiss_14.png","response":null,"trial_type":"image-keyboard-response","trial_index":32,"plugin_version":"2.1.0","time_elapsed":151418862,"subject_id":"90156","group":"Group2","full_date":"2025-11-29T00:19:56.689Z","date":"2025-11-29","time":"00:19:56"},{"rt":null,"stimulus":"<p style=\"font-size: 50px; margin: 0; text-align: center;\">+</p>","response":null,"trial_type":"html-keyboard-response","trial_index":33,"plugin_version":"2.1.0","time_elapsed":151419877,"subject_id":"90156","group":"Group2","full_date":"2025-11-29T00:19:56.689Z","date":"2025-11-29","time":"00:19:56"},{"task":"memory_phase","broad_category":"M","image_png":"M_Marble_02.png","image_id":226,"category_name":"Marble","category":15,"distinct_rating":3.2,"distinct_type":"Bottom","rt":null,"stimulus":"Stimuli_Rocks480/M_Marble_02.png","response":null,"trial_type":"image-keyboard-response","trial_index":34,"plugin_version":"2.1.0","time_elapsed":151422392,"subject_id":"90156","group":"Group2","full_date":"2025-11-29T00:19:56.689Z","date":"2025-11-29","time":"00:19:56"},{"rt":null,"stimulus":"<p style=\"font-size: 50px; margin: 0; text-align: center;\">+</p>","response":null,"trial_type":"html-keyboard-response","trial_index":35,"plugin_version":"2.1.0","time_elapsed":151423397,"subject_id":"90156","group":"Group2","full_date":"2025-11-29T00:19:56.689Z","date":"2025-11-29","time":"00:19:56"},{"task":"memory_phase","broad_category":"M","image_png":"M_Phyllite_05.png","image_id":261,"category_name":"Phyllite","category":17,"distinct_rating":2.14,"distinct_type":"Bottom","rt":null,"stimulus":"Stimuli_Rocks480/M_Phyllite_05.png","response":null,"trial_type":"image-keyboard-response","trial_index":36,"plugin_version":"2.1.0","time_elapsed":151425910,"subject_id":"90156","group":"Group2","full_date":"2025-11-29T00:19:56.689Z","date":"2025-11-29","time":"00:19:56"},{"rt":null,"stimulus":"<p style=\"font-size: 50px; margin: 0; text-align: center;\">+</p>","response":null,"trial_type":"html-keyboard-response","trial_index":37,"plugin_version":"2.1.0","time_elapsed":151426917,"subject_id":"90156","group":"Group2","full_date":"2025-11-29T00:19:56.689Z","date":"2025-11-29","time":"00:19:56"},{"task":"memory_phase","broad_category":"S","image_png":"S_Sandstone_11.png","image_id":459,"category_name":"Sandstone","category":29,"distinct_rating":1.82,"distinct_type":"Bottom","rt":null,"stimulus":"Stimuli_Rocks480/S_Sandstone_11.png","response":null,"trial_type":"image-keyboard-response","trial_index":38,"plugin_version":"2.1.0","time_elapsed":151429419,"subject_id":"90156","group":"Group2","full_date":"2025-11-29T00:19:56.689Z","date":"2025-11-29","time":"00:19:56"},{"rt":null,"stimulus":"<p style=\"font-size: 50px; margin: 0; text-align: center;\">+</p>","response":null,"trial_type":"html-keyboard-response","trial_index":39,"plugin_version":"2.1.0","time_elapsed":151430429,"subject_id":"90156","group":"Group2","full_date":"2025-11-29T00:19:56.689Z","date":"2025-11-29","time":"00:19:56"},{"task":"memory_phase","broad_category":"I","image_png":"I_Pumice_01.png","image_id":129,"category_name":"Pumice","category":9,"distinct_rating":3.25,"distinct_type":"Bottom","rt":null,"stimulus":"Stimuli_Rocks480/I_Pumice_01.png","response":null,"trial_type":"image-keyboard-response","trial_index":40,"plugin_version":"2.1.0","time_elapsed":151432933,"subject_id":"90156","group":"Group2","full_date":"2025-11-29T00:19:56.689Z","date":"2025-11-29","time":"00:19:56"},{"rt":null,"stimulus":"<p style=\"font-size: 50px; margin: 0; text-align: center;\">+</p>","response":null,"trial_type":"html-keyboard-response","trial_index":41,"plugin_version":"2.1.0","time_elapsed":151433937,"subject_id":"90156","group":"Group2","full_date":"2025-11-29T00:19:56.689Z","date":"2025-11-29","time":"00:19:56"},{"task":"memory_phase","broad_category":"I","image_png":"I_Gabbro_12.png","image_id":60,"category_name":"Gabbro","category":4,"distinct_rating":2.6,"distinct_type":"Bottom","rt":null,"stimulus":"Stimuli_Rocks480/I_Gabbro_12.png","response":null,"trial_type":"image-keyboard-response","trial_index":42,"plugin_version":"2.1.0","time_elapsed":151436449,"subject_id":"90156","group":"Group2","full_date":"2025-11-29T00:19:56.689Z","date":"2025-11-29","time":"00:19:56"},{"rt":null,"stimulus":"<p style=\"font-size: 50px; margin: 0; text-align: center;\">+</p>","response":null,"trial_type":"html-keyboard-response","trial_index":43,"plugin_version":"2.1.0","time_elapsed":151437456,"subject_id":"90156","group":"Group2","full_date":"2025-11-29T00:19:56.689Z","date":"2025-11-29","time":"00:19:56"},{"task":"memory_phase","broad_category":"I","image_png":"I_Pumice_14.png","image_id":142,"category_name":"Pumice","category":9,"distinct_rating":3.22,"distinct_type":"Bottom","rt":null,"stimulus":"Stimuli_Rocks480/I_Pumice_14.png","response":null,"trial_type":"image-keyboard-response","trial_index":44,"plugin_version":"2.1.0","time_elapsed":151439971,"subject_id":"90156","group":"Group2","full_date":"2025-11-29T00:19:56.689Z","date":"2025-11-29","time":"00:19:56"},{"rt":null,"stimulus":"<p style=\"font-size: 50px; margin: 0; text-align: center;\">+</p>","response":null,"trial_type":"html-keyboard-response","trial_index":45,"plugin_version":"2.1.0","time_elapsed":151440976,"subject_id":"90156","group":"Group2","full_date":"2025-11-29T00:19:56.689Z","date":"2025-11-29","time":"00:19:56"},{"task":"memory_phase","broad_category":"I","image_png":"I_Gabbro_02.png","image_id":50,"category_name":"Gabbro","category":4,"distinct_rating":2.73,"distinct_type":"Bottom","rt":null,"stimulus":"Stimuli_Rocks480/I_Gabbro_02.png","response":null,"trial_type":"image-keyboard-response","trial_index":46,"plugin_version":"2.1.0","time_elapsed":151443484,"subject_id":"90156","group":"Group2","full_date":"2025-11-29T00:19:56.689Z","date":"2025-11-29","time":"00:19:56"},{"rt":null,"stimulus":"<p style=\"font-size: 50px; margin: 0; text-align: center;\">+</p>","response":null,"trial_type":"html-keyboard-response","trial_index":47,"plugin_version":"2.1.0","time_elapsed":151444489,"subject_id":"90156","group":"Group2","full_date":"2025-11-29T00:19:56.689Z","date":"2025-11-29","time":"00:19:56"},{"task":"memory_phase","broad_category":"I","image_png":"I_Basalt_10.png","image_id":26,"category_name":"Basalt","category":2,"distinct_rating":2.76,"distinct_type":"Bottom","rt":null,"stimulus":"Stimuli_Rocks480/I_Basalt_10.png","response":null,"trial_type":"image-keyboard-response","trial_index":48,"plugin_version":"2.1.0","time_elapsed":151447007,"subject_id":"90156","group":"Group2","full_date":"2025-11-29T00:19:56.689Z","date":"2025-11-29","time":"00:19:56"},{"rt":null,"stimulus":"<p style=\"font-size: 50px; margin: 0; text-align: center;\">+</p>","response":null,"trial_type":"html-keyboard-response","trial_index":49,"plugin_version":"2.1.0","time_elapsed":151448020,"subject_id":"90156","group":"Group2","full_date":"2025-11-29T00:19:56.689Z","date":"2025-11-29","time":"00:19:56"},{"task":"memory_phase","broad_category":"M","image_png":"M_Phyllite_13.png","image_id":269,"category_name":"Phyllite","category":17,"distinct_rating":2.8,"distinct_type":"Bottom","rt":null,"stimulus":"Stimuli_Rocks480/M_Phyllite_13.png","response":null,"trial_type":"image-keyboard-response","trial_index":50,"plugin_version":"2.1.0","time_elapsed":151450527,"subject_id":"90156","group":"Group2","full_date":"2025-11-29T00:19:56.689Z","date":"2025-11-29","time":"00:19:56"},{"rt":null,"stimulus":"<p style=\"font-size: 50px; margin: 0; text-align: center;\">+</p>","response":null,"trial_type":"html-keyboard-response","trial_index":51,"plugin_version":"2.1.0","time_elapsed":151451529,"subject_id":"90156","group":"Group2","full_date":"2025-11-29T00:19:56.689Z","date":"2025-11-29","time":"00:19:56"},{"task":"memory_phase","broad_category":"M","image_png":"M_Gneiss_15.png","image_id":207,"category_name":"Gneiss","category":13,"distinct_rating":3.11,"distinct_type":"Bottom","rt":null,"stimulus":"Stimuli_Rocks480/M_Gneiss_15.png","response":null,"trial_type":"image-keyboard-response","trial_index":52,"plugin_version":"2.1.0","time_elapsed":151454043,"subject_id":"90156","group":"Group2","full_date":"2025-11-29T00:19:56.689Z","date":"2025-11-29","time":"00:19:56"},{"rt":null,"stimulus":"<p style=\"font-size: 50px; margin: 0; text-align: center;\">+</p>","response":null,"trial_type":"html-keyboard-response","trial_index":53,"plugin_version":"2.1.0","time_elapsed":151455051,"subject_id":"90156","group":"Group2","full_date":"2025-11-29T00:19:56.689Z","date":"2025-11-29","time":"00:19:56"},{"task":"memory_phase","broad_category":"M","image_png":"M_Gneiss_10.png","image_id":202,"category_name":"Gneiss","category":13,"distinct_rating":3.09,"distinct_type":"Bottom","rt":null,"stimulus":"Stimuli_Rocks480/M_Gneiss_10.png","response":null,"trial_type":"image-keyboard-response","trial_index":54,"plugin_version":"2.1.0","time_elapsed":151457569,"subject_id":"90156","group":"Group2","full_date":"2025-11-29T00:19:56.689Z","date":"2025-11-29","time":"00:19:56"},{"rt":2390,"stimulus":"<p style=\"max-width: 760px; margin: auto; font-size: 35px; line-height: 1.5;\">Press SPACE to continue study phase</p>","response":" ","trial_type":"html-keyboard-response","trial_index":55,"plugin_version":"2.1.0","time_elapsed":151459964,"subject_id":"90156","group":"Group2","full_date":"2025-11-29T00:19:56.689Z","date":"2025-11-29","time":"00:19:56"},{"rt":null,"stimulus":"<p style=\"font-size: 50px; margin: 0; text-align: center;\">+</p>","response":null,"trial_type":"html-keyboard-response","trial_index":56,"plugin_version":"2.1.0","time_elapsed":151460975,"subject_id":"90156","group":"Group2","full_date":"2025-11-29T00:19:56.689Z","date":"2025-11-29","time":"00:19:56"},{"task":"memory_phase","broad_category":"I","image_png":"I_Andesite_04.png","image_id":4,"category_name":"Andesite","category":1,"distinct_rating":3.18,"distinct_type":"Bottom","rt":null,"stimulus":"Stimuli_Rocks480/I_Andesite_04.png","response":null,"trial_type":"image-keyboard-response","trial_index":57,"plugin_version":"2.1.0","time_elapsed":151463490,"subject_id":"90156","group":"Group2","full_date":"2025-11-29T00:19:56.689Z","date":"2025-11-29","time":"00:19:56"},{"rt":null,"stimulus":"<p style=\"font-size: 50px; margin: 0; text-align: center;\">+</p>","response":null,"trial_type":"html-keyboard-response","trial_index":58,"plugin_version":"2.1.0","time_elapsed":151464502,"subject_id":"90156","group":"Group2","full_date":"2025-11-29T00:19:56.689Z","date":"2025-11-29","time":"00:19:56"},{"task":"memory_phase","broad_category":"M","image_png":"M_Quartzite_07.png","image_id":279,"category_name":"Quartzite","category":18,"distinct_rating":1.97,"distinct_type":"Bottom","rt":null,"stimulus":"Stimuli_Rocks480/M_Quartzite_07.png","response":null,"trial_type":"image-keyboard-response","trial_index":59,"plugin_version":"2.1.0","time_elapsed":151467020,"subject_id":"90156","group":"Group2","full_date":"2025-11-29T00:19:56.689Z","date":"2025-11-29","time":"00:19:56"},{"rt":null,"stimulus":"<p style=\"font-size: 50px; margin: 0; text-align: center;\">+</p>","response":null,"trial_type":"html-keyboard-response","trial_index":60,"plugin_version":"2.1.0","time_elapsed":151468035,"subject_id":"90156","group":"Group2","full_date":"2025-11-29T00:19:56.689Z","date":"2025-11-29","time":"00:19:56"},{"task":"memory_phase","broad_category":"M","image_png":"M_Slate_04.png","image_id":308,"category_name":"Slate","category":20,"distinct_rating":2.2,"distinct_type":"Bottom","rt":null,"stimulus":"Stimuli_Rocks480/M_Slate_04.png","response":null,"trial_type":"image-keyboard-response","trial_index":61,"plugin_version":"2.1.0","time_elapsed":151470549,"subject_id":"90156","group":"Group2","full_date":"2025-11-29T00:19:56.689Z","date":"2025-11-29","time":"00:19:56"},{"rt":null,"stimulus":"<p style=\"font-size: 50px; margin: 0; text-align: center;\">+</p>","response":null,"trial_type":"html-keyboard-response","trial_index":62,"plugin_version":"2.1.0","time_elapsed":151471565,"subject_id":"90156","group":"Group2","full_date":"2025-11-29T00:19:56.689Z","date":"2025-11-29","time":"00:19:56"},{"task":"memory_phase","broad_category":"I","image_png":"I_Rhyolite_05.png","image_id":149,"category_name":"Rhyolite","category":10,"distinct_rating":3.02,"distinct_type":"Bottom","rt":null,"stimulus":"Stimuli_Rocks480/I_Rhyolite_05.png","response":null,"trial_type":"image-keyboard-response","trial_index":63,"plugin_version":"2.1.0","time_elapsed":151474073,"subject_id":"90156","group":"Group2","full_date":"2025-11-29T00:19:56.689Z","date":"2025-11-29","time":"00:19:56"},{"rt":null,"stimulus":"<p style=\"font-size: 50px; margin: 0; text-align: center;\">+</p>","response":null,"trial_type":"html-keyboard-response","trial_index":64,"plugin_version":"2.1.0","time_elapsed":151475080,"subject_id":"90156","group":"Group2","full_date":"2025-11-29T00:19:56.689Z","date":"2025-11-29","time":"00:19:56"},{"task":"memory_phase","broad_category":"S","image_png":"S_Chert_13.png","image_id":365,"category_name":"Chert","category":23,"distinct_rating":6.57,"distinct_type":"Top","rt":null,"stimulus":"Stimuli_Rocks480/S_Chert_13.png","response":null,"trial_type":"image-keyboard-response","trial_index":65,"plugin_version":"2.1.0","time_elapsed":151477590,"subject_id":"90156","group":"Group2","full_date":"2025-11-29T00:19:56.689Z","date":"2025-11-29","time":"00:19:56"},{"rt":null,"stimulus":"<p style=\"font-size: 50px; margin: 0; text-align: center;\">+</p>","response":null,"trial_type":"html-keyboard-response","trial_index":66,"plugin_version":"2.1.0","time_elapsed":151478606,"subject_id":"90156","group":"Group2","full_date":"2025-11-29T00:19:56.689Z","date":"2025-11-29","time":"00:19:56"},{"task":"memory_phase","broad_category":"S","image_png":"S_Rock Salt_15.png","image_id":447,"category_name":"Rock Salt","category":28,"distinct_rating":7.79,"distinct_type":"Top","rt":null,"stimulus":"Stimuli_Rocks480/S_Rock Salt_15.png","response":null,"trial_type":"image-keyboard-response","trial_index":67,"plugin_version":"2.1.0","time_elapsed":151481125,"subject_id":"90156","group":"Group2","full_date":"2025-11-29T00:19:56.689Z","date":"2025-11-29","time":"00:19:56"},{"rt":null,"stimulus":"<p style=\"font-size: 50px; margin: 0; text-align: center;\">+</p>","response":null,"trial_type":"html-keyboard-response","trial_index":68,"plugin_version":"2.1.0","time_elapsed":151482127,"subject_id":"90156","group":"Group2","full_date":"2025-11-29T00:19:56.689Z","date":"2025-11-29","time":"00:19:56"},{"task":"memory_phase","broad_category":"I","image_png":"I_Rhyolite_10.png","image_id":154,"category_name":"Rhyolite","category":10,"distinct_rating":2.88,"distinct_type":"Bottom","rt":null,"stimulus":"Stimuli_Rocks480/I_Rhyolite_10.png","response":null,"trial_type":"image-keyboard-response","trial_index":69,"plugin_version":"2.1.0","time_elapsed":151484644,"subject_id":"90156","group":"Group2","full_date":"2025-11-29T00:19:56.689Z","date":"2025-11-29","time":"00:19:56"},{"rt":null,"stimulus":"<p style=\"font-size: 50px; margin: 0; text-align: center;\">+</p>","response":null,"trial_type":"html-keyboard-response","trial_index":70,"plugin_version":"2.1.0","time_elapsed":151485657,"subject_id":"90156","group":"Group2","full_date":"2025-11-29T00:19:56.689Z","date":"2025-11-29","time":"00:19:56"},{"task":"memory_phase","broad_category":"M","image_png":"M_Marble_03.png","image_id":227,"category_name":"Marble","category":15,"distinct_rating":2.67,"distinct_type":"Bottom","rt":null,"stimulus":"Stimuli_Rocks480/M_Marble_03.png","response":null,"trial_type":"image-keyboard-response","trial_index":71,"plugin_version":"2.1.0","time_elapsed":151488167,"subject_id":"90156","group":"Group2","full_date":"2025-11-29T00:19:56.689Z","date":"2025-11-29","time":"00:19:56"},{"rt":null,"stimulus":"<p style=\"font-size: 50px; margin: 0; text-align: center;\">+</p>","response":null,"trial_type":"html-keyboard-response","trial_index":72,"plugin_version":"2.1.0","time_elapsed":151489175,"subject_id":"90156","group":"Group2","full_date":"2025-11-29T00:19:56.689Z","date":"2025-11-29","time":"00:19:56"},{"task":"memory_phase","broad_category":"S","image_png":"S_Shale_07.png","image_id":471,"category_name":"Shale","category":30,"distinct_rating":2.73,"distinct_type":"Bottom","rt":null,"stimulus":"Stimuli_Rocks480/S_Shale_07.png","response":null,"trial_type":"image-keyboard-response","trial_index":73,"plugin_version":"2.1.0","time_elapsed":151491687,"subject_id":"90156","group":"Group2","full_date":"2025-11-29T00:19:56.689Z","date":"2025-11-29","time":"00:19:56"},{"rt":null,"stimulus":"<p style=\"font-size: 50px; margin: 0; text-align: center;\">+</p>","response":null,"trial_type":"html-keyboard-response","trial_index":74,"plugin_version":"2.1.0","time_elapsed":151492704,"subject_id":"90156","group":"Group2","full_date":"2025-11-29T00:19:56.689Z","date":"2025-11-29","time":"00:19:56"},{"task":"memory_phase","broad_category":"I","image_png":"I_Basalt_13.png","image_id":29,"category_name":"Basalt","category":2,"distinct_rating":2.68,"distinct_type":"Bottom","rt":null,"stimulus":"Stimuli_Rocks480/I_Basalt_13.png","response":null,"trial_type":"image-keyboard-response","trial_index":75,"plugin_version":"2.1.0","time_elapsed":151495210,"subject_id":"90156","group":"Group2","full_date":"2025-11-29T00:19:56.689Z","date":"2025-11-29","time":"00:19:56"},{"rt":null,"stimulus":"<p style=\"font-size: 50px; margin: 0; text-align: center;\">+</p>","response":null,"trial_type":"html-keyboard-response","trial_index":76,"plugin_version":"2.1.0","time_elapsed":151496225,"subject_id":"90156","group":"Group2","full_date":"2025-11-29T00:19:56.689Z","date":"2025-11-29","time":"00:19:56"},{"task":"memory_phase","broad_category":"S","image_png":"S_Dolomite_01.png","image_id":385,"category_name":"Dolomite","category":25,"distinct_rating":1.43,"distinct_type":"Bottom","rt":null,"stimulus":"Stimuli_Rocks480/S_Dolomite_01.png","response":null,"trial_type":"image-keyboard-response","trial_index":77,"plugin_version":"2.1.0","time_elapsed":151498736,"subject_id":"90156","group":"Group2","full_date":"2025-11-29T00:19:56.689Z","date":"2025-11-29","time":"00:19:56"},{"rt":null,"stimulus":"<p style=\"font-size: 50px; margin: 0; text-align: center;\">+</p>","response":null,"trial_type":"html-keyboard-response","trial_index":78,"plugin_version":"2.1.0","time_elapsed":151499738,"subject_id":"90156","group":"Group2","full_date":"2025-11-29T00:19:56.689Z","date":"2025-11-29","time":"00:19:56"},{"task":"memory_phase","broad_category":"S","image_png":"S_Rock Salt_13.png","image_id":445,"category_name":"Rock Salt","category":28,"distinct_rating":7.58,"distinct_type":"Top","rt":null,"stimulus":"Stimuli_Rocks480/S_Rock Salt_13.png","response":null,"trial_type":"image-keyboard-response","trial_index":79,"plugin_version":"2.1.0","time_elapsed":151502254,"subject_id":"90156","group":"Group2","full_date":"2025-11-29T00:19:56.689Z","date":"2025-11-29","time":"00:19:56"},{"rt":null,"stimulus":"<p style=\"font-size: 50px; margin: 0; text-align: center;\">+</p>","response":null,"trial_type":"html-keyboard-response","trial_index":80,"plugin_version":"2.1.0","time_elapsed":151503264,"subject_id":"90156","group":"Group2","full_date":"2025-11-29T00:19:56.689Z","date":"2025-11-29","time":"00:19:56"},{"task":"memory_phase","broad_category":"S","image_png":"S_Dolomite_07.png","image_id":391,"category_name":"Dolomite","category":25,"distinct_rating":1.73,"distinct_type":"Bottom","rt":null,"stimulus":"Stimuli_Rocks480/S_Dolomite_07.png","response":null,"trial_type":"image-keyboard-response","trial_index":81,"plugin_version":"2.1.0","time_elapsed":151505782,"subject_id":"90156","group":"Group2","full_date":"2025-11-29T00:19:56.689Z","date":"2025-11-29","time":"00:19:56"},{"rt":null,"stimulus":"<p style=\"font-size: 50px; margin: 0; text-align: center;\">+</p>","response":null,"trial_type":"html-keyboard-response","trial_index":82,"plugin_version":"2.1.0","time_elapsed":151506788,"subject_id":"90156","group":"Group2","full_date":"2025-11-29T00:19:56.689Z","date":"2025-11-29","time":"00:19:56"},{"task":"memory_phase","broad_category":"M","image_png":"M_Quartzite_12.png","image_id":284,"category_name":"Quartzite","category":18,"distinct_rating":1.92,"distinct_type":"Bottom","rt":null,"stimulus":"Stimuli_Rocks480/M_Quartzite_12.png","response":null,"trial_type":"image-keyboard-response","trial_index":83,"plugin_version":"2.1.0","time_elapsed":151509304,"subject_id":"90156","group":"Group2","full_date":"2025-11-29T00:19:56.689Z","date":"2025-11-29","time":"00:19:56"},{"rt":null,"stimulus":"<p style=\"font-size: 50px; margin: 0; text-align: center;\">+</p>","response":null,"trial_type":"html-keyboard-response","trial_index":84,"plugin_version":"2.1.0","time_elapsed":151510317,"subject_id":"90156","group":"Group2","full_date":"2025-11-29T00:19:56.689Z","date":"2025-11-29","time":"00:19:56"},{"task":"memory_phase","broad_category":"I","image_png":"I_Peridotite_13.png","image_id":125,"category_name":"Peridotite","category":8,"distinct_rating":7.28,"distinct_type":"Top","rt":null,"stimulus":"Stimuli_Rocks480/I_Peridotite_13.png","response":null,"trial_type":"image-keyboard-response","trial_index":85,"plugin_version":"2.1.0","time_elapsed":151512836,"subject_id":"90156","group":"Group2","full_date":"2025-11-29T00:19:56.689Z","date":"2025-11-29","time":"00:19:56"},{"rt":null,"stimulus":"<p style=\"font-size: 50px; margin: 0; text-align: center;\">+</p>","response":null,"trial_type":"html-keyboard-response","trial_index":86,"plugin_version":"2.1.0","time_elapsed":151513846,"subject_id":"90156","group":"Group2","full_date":"2025-11-29T00:19:56.689Z","date":"2025-11-29","time":"00:19:56"},{"task":"memory_phase","broad_category":"I","image_png":"I_Rhyolite_08.png","image_id":152,"category_name":"Rhyolite","category":10,"distinct_rating":1.38,"distinct_type":"Bottom","rt":null,"stimulus":"Stimuli_Rocks480/I_Rhyolite_08.png","response":null,"trial_type":"image-keyboard-response","trial_index":87,"plugin_version":"2.1.0","time_elapsed":151516356,"subject_id":"90156","group":"Group2","full_date":"2025-11-29T00:19:56.689Z","date":"2025-11-29","time":"00:19:56"},{"rt":null,"stimulus":"<p style=\"font-size: 50px; margin: 0; text-align: center;\">+</p>","response":null,"trial_type":"html-keyboard-response","trial_index":88,"plugin_version":"2.1.0","time_elapsed":151517373,"subject_id":"90156","group":"Group2","full_date":"2025-11-29T00:19:56.689Z","date":"2025-11-29","time":"00:19:56"},{"task":"memory_phase","broad_category":"I","image_png":"I_Gabbro_14.png","image_id":62,"category_name":"Gabbro","category":4,"distinct_rating":2.95,"distinct_type":"Bottom","rt":null,"stimulus":"Stimuli_Rocks480/I_Gabbro_14.png","response":null,"trial_type":"image-keyboard-response","trial_index":89,"plugin_version":"2.1.0","time_elapsed":151519885,"subject_id":"90156","group":"Group2","full_date":"2025-11-29T00:19:56.689Z","date":"2025-11-29","time":"00:19:56"},{"rt":null,"stimulus":"<p style=\"font-size: 50px; margin: 0; text-align: center;\">+</p>","response":null,"trial_type":"html-keyboard-response","trial_index":90,"plugin_version":"2.1.0","time_elapsed":151520889,"subject_id":"90156","group":"Group2","full_date":"2025-11-29T00:19:56.689Z","date":"2025-11-29","time":"00:19:56"},{"task":"memory_phase","broad_category":"S","image_png":"S_Shale_03.png","image_id":467,"category_name":"Shale","category":30,"distinct_rating":1.95,"distinct_type":"Bottom","rt":null,"stimulus":"Stimuli_Rocks480/S_Shale_03.png","response":null,"trial_type":"image-keyboard-response","trial_index":91,"plugin_version":"2.1.0","time_elapsed":151523404,"subject_id":"90156","group":"Group2","full_date":"2025-11-29T00:19:56.689Z","date":"2025-11-29","time":"00:19:56"},{"rt":null,"stimulus":"<p style=\"font-size: 50px; margin: 0; text-align: center;\">+</p>","response":null,"trial_type":"html-keyboard-response","trial_index":92,"plugin_version":"2.1.0","time_elapsed":151524413,"subject_id":"90156","group":"Group2","full_date":"2025-11-29T00:19:56.689Z","date":"2025-11-29","time":"00:19:56"},{"task":"memory_phase","broad_category":"I","image_png":"I_Pegmatite_03.png","image_id":99,"category_name":"Pegmatite","category":7,"distinct_rating":7.24,"distinct_type":"Top","rt":null,"stimulus":"Stimuli_Rocks480/I_Pegmatite_03.png","response":null,"trial_type":"image-keyboard-response","trial_index":93,"plugin_version":"2.1.0","time_elapsed":151526921,"subject_id":"90156","group":"Group2","full_date":"2025-11-29T00:19:56.689Z","date":"2025-11-29","time":"00:19:56"},{"rt":null,"stimulus":"<p style=\"font-size: 50px; margin: 0; text-align: center;\">+</p>","response":null,"trial_type":"html-keyboard-response","trial_index":94,"plugin_version":"2.1.0","time_elapsed":151527926,"subject_id":"90156","group":"Group2","full_date":"2025-11-29T00:19:56.689Z","date":"2025-11-29","time":"00:19:56"},{"task":"memory_phase","broad_category":"M","image_png":"M_Marble_14.png","image_id":238,"category_name":"Marble","category":15,"distinct_rating":3.31,"distinct_type":"Bottom","rt":null,"stimulus":"Stimuli_Rocks480/M_Marble_14.png","response":null,"trial_type":"image-keyboard-response","trial_index":95,"plugin_version":"2.1.0","time_elapsed":151530433,"subject_id":"90156","group":"Group2","full_date":"2025-11-29T00:19:56.689Z","date":"2025-11-29","time":"00:19:56"},{"rt":null,"stimulus":"<p style=\"font-size: 50px; margin: 0; text-align: center;\">+</p>","response":null,"trial_type":"html-keyboard-response","trial_index":96,"plugin_version":"2.1.0","time_elapsed":151531440,"subject_id":"90156","group":"Group2","full_date":"2025-11-29T00:19:56.689Z","date":"2025-11-29","time":"00:19:56"},{"task":"memory_phase","broad_category":"I","image_png":"I_Andesite_03.png","image_id":3,"category_name":"Andesite","category":1,"distinct_rating":3.17,"distinct_type":"Bottom","rt":null,"stimulus":"Stimuli_Rocks480/I_Andesite_03.png","response":null,"trial_type":"image-keyboard-response","trial_index":97,"plugin_version":"2.1.0","time_elapsed":151533944,"subject_id":"90156","group":"Group2","full_date":"2025-11-29T00:19:56.689Z","date":"2025-11-29","time":"00:19:56"},{"rt":null,"stimulus":"<p style=\"font-size: 50px; margin: 0; text-align: center;\">+</p>","response":null,"trial_type":"html-keyboard-response","trial_index":98,"plugin_version":"2.1.0","time_elapsed":151534959,"subject_id":"90156","group":"Group2","full_date":"2025-11-29T00:19:56.689Z","date":"2025-11-29","time":"00:19:56"},{"task":"memory_phase","broad_category":"M","image_png":"M_Quartzite_15.png","image_id":287,"category_name":"Quartzite","category":18,"distinct_rating":2.19,"distinct_type":"Bottom","rt":null,"stimulus":"Stimuli_Rocks480/M_Quartzite_15.png","response":null,"trial_type":"image-keyboard-response","trial_index":99,"plugin_version":"2.1.0","time_elapsed":151537473,"subject_id":"90156","group":"Group2","full_date":"2025-11-29T00:19:56.689Z","date":"2025-11-29","time":"00:19:56"},{"rt":null,"stimulus":"<p style=\"font-size: 50px; margin: 0; text-align: center;\">+</p>","response":null,"trial_type":"html-keyboard-response","trial_index":100,"plugin_version":"2.1.0","time_elapsed":151538481,"subject_id":"90156","group":"Group2","full_date":"2025-11-29T00:19:56.689Z","date":"2025-11-29","time":"00:19:56"},{"task":"memory_phase","broad_category":"S","image_png":"S_Shale_02.png","image_id":466,"category_name":"Shale","category":30,"distinct_rating":2.9,"distinct_type":"Bottom","rt":null,"stimulus":"Stimuli_Rocks480/S_Shale_02.png","response":null,"trial_type":"image-keyboard-response","trial_index":101,"plugin_version":"2.1.0","time_elapsed":151540996,"subject_id":"90156","group":"Group2","full_date":"2025-11-29T00:19:56.689Z","date":"2025-11-29","time":"00:19:56"},{"rt":null,"stimulus":"<p style=\"font-size: 50px; margin: 0; text-align: center;\">+</p>","response":null,"trial_type":"html-keyboard-response","trial_index":102,"plugin_version":"2.1.0","time_elapsed":151542000,"subject_id":"90156","group":"Group2","full_date":"2025-11-29T00:19:56.689Z","date":"2025-11-29","time":"00:19:56"},{"task":"memory_phase","broad_category":"S","image_png":"S_Conglomerate_14.png","image_id":382,"category_name":"Conglomerate","category":24,"distinct_rating":6.86,"distinct_type":"Top","rt":null,"stimulus":"Stimuli_Rocks480/S_Conglomerate_14.png","response":null,"trial_type":"image-keyboard-response","trial_index":103,"plugin_version":"2.1.0","time_elapsed":151544506,"subject_id":"90156","group":"Group2","full_date":"2025-11-29T00:19:56.689Z","date":"2025-11-29","time":"00:19:56"},{"rt":null,"stimulus":"<p style=\"font-size: 50px; margin: 0; text-align: center;\">+</p>","response":null,"trial_type":"html-keyboard-response","trial_index":104,"plugin_version":"2.1.0","time_elapsed":151545514,"subject_id":"90156","group":"Group2","full_date":"2025-11-29T00:19:56.689Z","date":"2025-11-29","time":"00:19:56"},{"task":"memory_phase","broad_category":"I","image_png":"I_Obsidian_06.png","image_id":86,"category_name":"Obsidian","category":6,"distinct_rating":8.01,"distinct_type":"Top","rt":null,"stimulus":"Stimuli_Rocks480/I_Obsidian_06.png","response":null,"trial_type":"image-keyboard-response","trial_index":105,"plugin_version":"2.1.0","time_elapsed":151548039,"subject_id":"90156","group":"Group2","full_date":"2025-11-29T00:19:56.689Z","date":"2025-11-29","time":"00:19:56"},{"rt":3442,"stimulus":"<p style=\"max-width: 760px; margin: auto; font-size: 35px; line-height: 1.5;\">You have completed 1 study phase. Now, we'll show you all the images again 2 more times.<br><br>Press SPACE to continue</p>","response":" ","trial_type":"html-keyboard-response","trial_index":106,"plugin_version":"2.1.0","time_elapsed":151551483,"subject_id":"90156","group":"Group2","full_date":"2025-11-29T00:19:56.689Z","date":"2025-11-29","time":"00:19:56"},{"rt":null,"stimulus":"<p style=\"font-size: 50px; margin: 0; text-align: center;\">+</p>","response":null,"trial_type":"html-keyboard-response","trial_index":107,"plugin_version":"2.1.0","time_elapsed":151552492,"subject_id":"90156","group":"Group2","full_date":"2025-11-29T00:19:56.689Z","date":"2025-11-29","time":"00:19:56"},{"task":"memory_phase","broad_category":"I","image_png":"I_Pumice_14.png","image_id":142,"category_name":"Pumice","category":9,"distinct_rating":3.22,"distinct_type":"Bottom","rt":null,"stimulus":"Stimuli_Rocks480/I_Pumice_14.png","response":null,"trial_type":"image-keyboard-response","trial_index":108,"plugin_version":"2.1.0","time_elapsed":151555010,"subject_id":"90156","group":"Group2","full_date":"2025-11-29T00:19:56.689Z","date":"2025-11-29","time":"00:19:56"},{"rt":null,"stimulus":"<p style=\"font-size: 50px; margin: 0; text-align: center;\">+</p>","response":null,"trial_type":"html-keyboard-response","trial_index":109,"plugin_version":"2.1.0","time_elapsed":151556016,"subject_id":"90156","group":"Group2","full_date":"2025-11-29T00:19:56.689Z","date":"2025-11-29","time":"00:19:56"},{"task":"memory_phase","broad_category":"M","image_png":"M_Phyllite_02.png","image_id":258,"category_name":"Phyllite","category":17,"distinct_rating":2.89,"distinct_type":"Bottom","rt":null,"stimulus":"Stimuli_Rocks480/M_Phyllite_02.png","response":null,"trial_type":"image-keyboard-response","trial_index":110,"plugin_version":"2.1.0","time_elapsed":151558530,"subject_id":"90156","group":"Group2","full_date":"2025-11-29T00:19:56.689Z","date":"2025-11-29","time":"00:19:56"},{"rt":null,"stimulus":"<p style=\"font-size: 50px; margin: 0; text-align: center;\">+</p>","response":null,"trial_type":"html-keyboard-response","trial_index":111,"plugin_version":"2.1.0","time_elapsed":151559540,"subject_id":"90156","group":"Group2","full_date":"2025-11-29T00:19:56.689Z","date":"2025-11-29","time":"00:19:56"},{"task":"memory_phase","broad_category":"I","image_png":"I_Diorite_15.png","image_id":47,"category_name":"Diorite","category":3,"distinct_rating":3.05,"distinct_type":"Bottom","rt":null,"stimulus":"Stimuli_Rocks480/I_Diorite_15.png","response":null,"trial_type":"image-keyboard-response","trial_index":112,"plugin_version":"2.1.0","time_elapsed":151562059,"subject_id":"90156","group":"Group2","full_date":"2025-11-29T00:19:56.689Z","date":"2025-11-29","time":"00:19:56"},{"rt":null,"stimulus":"<p style=\"font-size: 50px; margin: 0; text-align: center;\">+</p>","response":null,"trial_type":"html-keyboard-response","trial_index":113,"plugin_version":"2.1.0","time_elapsed":151563063,"subject_id":"90156","group":"Group2","full_date":"2025-11-29T00:19:56.689Z","date":"2025-11-29","time":"00:19:56"},{"task":"memory_phase","broad_category":"I","image_png":"I_Gabbro_14.png","image_id":62,"category_name":"Gabbro","category":4,"distinct_rating":2.95,"distinct_type":"Bottom","rt":null,"stimulus":"Stimuli_Rocks480/I_Gabbro_14.png","response":null,"trial_type":"image-keyboard-response","trial_index":114,"plugin_version":"2.1.0","time_elapsed":151565596,"subject_id":"90156","group":"Group2","full_date":"2025-11-29T00:19:56.689Z","date":"2025-11-29","time":"00:19:56"},{"rt":null,"stimulus":"<p style=\"font-size: 50px; margin: 0; text-align: center;\">+</p>","response":null,"trial_type":"html-keyboard-response","trial_index":115,"plugin_version":"2.1.0","time_elapsed":151566607,"subject_id":"90156","group":"Group2","full_date":"2025-11-29T00:19:56.689Z","date":"2025-11-29","time":"00:19:56"},{"task":"memory_phase","broad_category":"M","image_png":"M_Phyllite_05.png","image_id":261,"category_name":"Phyllite","category":17,"distinct_rating":2.14,"distinct_type":"Bottom","rt":null,"stimulus":"Stimuli_Rocks480/M_Phyllite_05.png","response":null,"trial_type":"image-keyboard-response","trial_index":116,"plugin_version":"2.1.0","time_elapsed":151569123,"subject_id":"90156","group":"Group2","full_date":"2025-11-29T00:19:56.689Z","date":"2025-11-29","time":"00:19:56"},{"rt":null,"stimulus":"<p style=\"font-size: 50px; margin: 0; text-align: center;\">+</p>","response":null,"trial_type":"html-keyboard-response","trial_index":117,"plugin_version":"2.1.0","time_elapsed":151570140,"subject_id":"90156","group":"Group2","full_date":"2025-11-29T00:19:56.689Z","date":"2025-11-29","time":"00:19:56"},{"task":"memory_phase","broad_category":"S","image_png":"S_Dolomite_16.png","image_id":400,"category_name":"Dolomite","category":25,"distinct_rating":1.71,"distinct_type":"Bottom","rt":null,"stimulus":"Stimuli_Rocks480/S_Dolomite_16.png","response":null,"trial_type":"image-keyboard-response","trial_index":118,"plugin_version":"2.1.0","time_elapsed":151572653,"subject_id":"90156","group":"Group2","full_date":"2025-11-29T00:19:56.689Z","date":"2025-11-29","time":"00:19:56"},{"rt":null,"stimulus":"<p style=\"font-size: 50px; margin: 0; text-align: center;\">+</p>","response":null,"trial_type":"html-keyboard-response","trial_index":119,"plugin_version":"2.1.0","time_elapsed":151573661,"subject_id":"90156","group":"Group2","full_date":"2025-11-29T00:19:56.689Z","date":"2025-11-29","time":"00:19:56"},{"task":"memory_phase","broad_category":"S","image_png":"S_Shale_02.png","image_id":466,"category_name":"Shale","category":30,"distinct_rating":2.9,"distinct_type":"Bottom","rt":null,"stimulus":"Stimuli_Rocks480/S_Shale_02.png","response":null,"trial_type":"image-keyboard-response","trial_index":120,"plugin_version":"2.1.0","time_elapsed":151576169,"subject_id":"90156","group":"Group2","full_date":"2025-11-29T00:19:56.689Z","date":"2025-11-29","time":"00:19:56"},{"rt":null,"stimulus":"<p style=\"font-size: 50px; margin: 0; text-align: center;\">+</p>","response":null,"trial_type":"html-keyboard-response","trial_index":121,"plugin_version":"2.1.0","time_elapsed":151577173,"subject_id":"90156","group":"Group2","full_date":"2025-11-29T00:19:56.689Z","date":"2025-11-29","time":"00:19:56"},{"task":"memory_phase","broad_category":"M","image_png":"M_Gneiss_15.png","image_id":207,"category_name":"Gneiss","category":13,"distinct_rating":3.11,"distinct_type":"Bottom","rt":null,"stimulus":"Stimuli_Rocks480/M_Gneiss_15.png","response":null,"trial_type":"image-keyboard-response","trial_index":122,"plugin_version":"2.1.0","time_elapsed":151579679,"subject_id":"90156","group":"Group2","full_date":"2025-11-29T00:19:56.689Z","date":"2025-11-29","time":"00:19:56"},{"rt":null,"stimulus":"<p style=\"font-size: 50px; margin: 0; text-align: center;\">+</p>","response":null,"trial_type":"html-keyboard-response","trial_index":123,"plugin_version":"2.1.0","time_elapsed":151580688,"subject_id":"90156","group":"Group2","full_date":"2025-11-29T00:19:56.689Z","date":"2025-11-29","time":"00:19:56"},{"task":"memory_phase","broad_category":"S","image_png":"S_Sandstone_04.png","image_id":452,"category_name":"Sandstone","category":29,"distinct_rating":1.8,"distinct_type":"Bottom","rt":null,"stimulus":"Stimuli_Rocks480/S_Sandstone_04.png","response":null,"trial_type":"image-keyboard-response","trial_index":124,"plugin_version":"2.1.0","time_elapsed":151583192,"subject_id":"90156","group":"Group2","full_date":"2025-11-29T00:19:56.689Z","date":"2025-11-29","time":"00:19:56"},{"rt":null,"stimulus":"<p style=\"font-size: 50px; margin: 0; text-align: center;\">+</p>","response":null,"trial_type":"html-keyboard-response","trial_index":125,"plugin_version":"2.1.0","time_elapsed":151584194,"subject_id":"90156","group":"Group2","full_date":"2025-11-29T00:19:56.689Z","date":"2025-11-29","time":"00:19:56"},{"task":"memory_phase","broad_category":"I","image_png":"I_Pumice_13.png","image_id":141,"category_name":"Pumice","category":9,"distinct_rating":3.12,"distinct_type":"Bottom","rt":null,"stimulus":"Stimuli_Rocks480/I_Pumice_13.png","response":null,"trial_type":"image-keyboard-response","trial_index":126,"plugin_version":"2.1.0","time_elapsed":151586712,"subject_id":"90156","group":"Group2","full_date":"2025-11-29T00:19:56.689Z","date":"2025-11-29","time":"00:19:56"},{"rt":null,"stimulus":"<p style=\"font-size: 50px; margin: 0; text-align: center;\">+</p>","response":null,"trial_type":"html-keyboard-response","trial_index":127,"plugin_version":"2.1.0","time_elapsed":151587725,"subject_id":"90156","group":"Group2","full_date":"2025-11-29T00:19:56.689Z","date":"2025-11-29","time":"00:19:56"},{"task":"memory_phase","broad_category":"M","image_png":"M_Phyllite_13.png","image_id":269,"category_name":"Phyllite","category":17,"distinct_rating":2.8,"distinct_type":"Bottom","rt":null,"stimulus":"Stimuli_Rocks480/M_Phyllite_13.png","response":null,"trial_type":"image-keyboard-response","trial_index":128,"plugin_version":"2.1.0","time_elapsed":151590231,"subject_id":"90156","group":"Group2","full_date":"2025-11-29T00:19:56.689Z","date":"2025-11-29","time":"00:19:56"},{"rt":null,"stimulus":"<p style=\"font-size: 50px; margin: 0; text-align: center;\">+</p>","response":null,"trial_type":"html-keyboard-response","trial_index":129,"plugin_version":"2.1.0","time_elapsed":151591233,"subject_id":"90156","group":"Group2","full_date":"2025-11-29T00:19:56.689Z","date":"2025-11-29","time":"00:19:56"},{"task":"memory_phase","broad_category":"I","image_png":"I_Basalt_08.png","image_id":24,"category_name":"Basalt","category":2,"distinct_rating":2.31,"distinct_type":"Bottom","rt":null,"stimulus":"Stimuli_Rocks480/I_Basalt_08.png","response":null,"trial_type":"image-keyboard-response","trial_index":130,"plugin_version":"2.1.0","time_elapsed":151593750,"subject_id":"90156","group":"Group2","full_date":"2025-11-29T00:19:56.689Z","date":"2025-11-29","time":"00:19:56"},{"rt":null,"stimulus":"<p style=\"font-size: 50px; margin: 0; text-align: center;\">+</p>","response":null,"trial_type":"html-keyboard-response","trial_index":131,"plugin_version":"2.1.0","time_elapsed":151594765,"subject_id":"90156","group":"Group2","full_date":"2025-11-29T00:19:56.689Z","date":"2025-11-29","time":"00:19:56"},{"task":"memory_phase","broad_category":"S","image_png":"S_Shale_03.png","image_id":467,"category_name":"Shale","category":30,"distinct_rating":1.95,"distinct_type":"Bottom","rt":null,"stimulus":"Stimuli_Rocks480/S_Shale_03.png","response":null,"trial_type":"image-keyboard-response","trial_index":132,"plugin_version":"2.1.0","time_elapsed":151597278,"subject_id":"90156","group":"Group2","full_date":"2025-11-29T00:19:56.689Z","date":"2025-11-29","time":"00:19:56"},{"rt":null,"stimulus":"<p style=\"font-size: 50px; margin: 0; text-align: center;\">+</p>","response":null,"trial_type":"html-keyboard-response","trial_index":133,"plugin_version":"2.1.0","time_elapsed":151598285,"subject_id":"90156","group":"Group2","full_date":"2025-11-29T00:19:56.689Z","date":"2025-11-29","time":"00:19:56"},{"task":"memory_phase","broad_category":"I","image_png":"I_Andesite_04.png","image_id":4,"category_name":"Andesite","category":1,"distinct_rating":3.18,"distinct_type":"Bottom","rt":null,"stimulus":"Stimuli_Rocks480/I_Andesite_04.png","response":null,"trial_type":"image-keyboard-response","trial_index":134,"plugin_version":"2.1.0","time_elapsed":151600793,"subject_id":"90156","group":"Group2","full_date":"2025-11-29T00:19:56.689Z","date":"2025-11-29","time":"00:19:56"},{"rt":null,"stimulus":"<p style=\"font-size: 50px; margin: 0; text-align: center;\">+</p>","response":null,"trial_type":"html-keyboard-response","trial_index":135,"plugin_version":"2.1.0","time_elapsed":151601810,"subject_id":"90156","group":"Group2","full_date":"2025-11-29T00:19:56.689Z","date":"2025-11-29","time":"00:19:56"},{"task":"memory_phase","broad_category":"I","image_png":"I_Pumice_01.png","image_id":129,"category_name":"Pumice","category":9,"distinct_rating":3.25,"distinct_type":"Bottom","rt":null,"stimulus":"Stimuli_Rocks480/I_Pumice_01.png","response":null,"trial_type":"image-keyboard-response","trial_index":136,"plugin_version":"2.1.0","time_elapsed":151604324,"subject_id":"90156","group":"Group2","full_date":"2025-11-29T00:19:56.689Z","date":"2025-11-29","time":"00:19:56"},{"rt":null,"stimulus":"<p style=\"font-size: 50px; margin: 0; text-align: center;\">+</p>","response":null,"trial_type":"html-keyboard-response","trial_index":137,"plugin_version":"2.1.0","time_elapsed":151605339,"subject_id":"90156","group":"Group2","full_date":"2025-11-29T00:19:56.689Z","date":"2025-11-29","time":"00:19:56"},{"task":"memory_phase","broad_category":"I","image_png":"I_Peridotite_13.png","image_id":125,"category_name":"Peridotite","category":8,"distinct_rating":7.28,"distinct_type":"Top","rt":null,"stimulus":"Stimuli_Rocks480/I_Peridotite_13.png","response":null,"trial_type":"image-keyboard-response","trial_index":138,"plugin_version":"2.1.0","time_elapsed":151607853,"subject_id":"90156","group":"Group2","full_date":"2025-11-29T00:19:56.689Z","date":"2025-11-29","time":"00:19:56"},{"rt":null,"stimulus":"<p style=\"font-size: 50px; margin: 0; text-align: center;\">+</p>","response":null,"trial_type":"html-keyboard-response","trial_index":139,"plugin_version":"2.1.0","time_elapsed":151608857,"subject_id":"90156","group":"Group2","full_date":"2025-11-29T00:19:56.689Z","date":"2025-11-29","time":"00:19:56"},{"task":"memory_phase","broad_category":"I","image_png":"I_Pegmatite_03.png","image_id":99,"category_name":"Pegmatite","category":7,"distinct_rating":7.24,"distinct_type":"Top","rt":null,"stimulus":"Stimuli_Rocks480/I_Pegmatite_03.png","response":null,"trial_type":"image-keyboard-response","trial_index":140,"plugin_version":"2.1.0","time_elapsed":151611376,"subject_id":"90156","group":"Group2","full_date":"2025-11-29T00:19:56.689Z","date":"2025-11-29","time":"00:19:56"},{"rt":null,"stimulus":"<p style=\"font-size: 50px; margin: 0; text-align: center;\">+</p>","response":null,"trial_type":"html-keyboard-response","trial_index":141,"plugin_version":"2.1.0","time_elapsed":151612380,"subject_id":"90156","group":"Group2","full_date":"2025-11-29T00:19:56.689Z","date":"2025-11-29","time":"00:19:56"},{"task":"memory_phase","broad_category":"I","image_png":"I_Basalt_13.png","image_id":29,"category_name":"Basalt","category":2,"distinct_rating":2.68,"distinct_type":"Bottom","rt":null,"stimulus":"Stimuli_Rocks480/I_Basalt_13.png","response":null,"trial_type":"image-keyboard-response","trial_index":142,"plugin_version":"2.1.0","time_elapsed":151614886,"subject_id":"90156","group":"Group2","full_date":"2025-11-29T00:19:56.689Z","date":"2025-11-29","time":"00:19:56"},{"rt":null,"stimulus":"<p style=\"font-size: 50px; margin: 0; text-align: center;\">+</p>","response":null,"trial_type":"html-keyboard-response","trial_index":143,"plugin_version":"2.1.0","time_elapsed":151615894,"subject_id":"90156","group":"Group2","full_date":"2025-11-29T00:19:56.689Z","date":"2025-11-29","time":"00:19:56"},{"task":"memory_phase","broad_category":"I","image_png":"I_Diorite_01.png","image_id":33,"category_name":"Diorite","category":3,"distinct_rating":2.97,"distinct_type":"Bottom","rt":null,"stimulus":"Stimuli_Rocks480/I_Diorite_01.png","response":null,"trial_type":"image-keyboard-response","trial_index":144,"plugin_version":"2.1.0","time_elapsed":151618400,"subject_id":"90156","group":"Group2","full_date":"2025-11-29T00:19:56.689Z","date":"2025-11-29","time":"00:19:56"},{"rt":null,"stimulus":"<p style=\"font-size: 50px; margin: 0; text-align: center;\">+</p>","response":null,"trial_type":"html-keyboard-response","trial_index":145,"plugin_version":"2.1.0","time_elapsed":151619417,"subject_id":"90156","group":"Group2","full_date":"2025-11-29T00:19:56.689Z","date":"2025-11-29","time":"00:19:56"},{"task":"memory_phase","broad_category":"S","image_png":"S_Conglomerate_14.png","image_id":382,"category_name":"Conglomerate","category":24,"distinct_rating":6.86,"distinct_type":"Top","rt":null,"stimulus":"Stimuli_Rocks480/S_Conglomerate_14.png","response":null,"trial_type":"image-keyboard-response","trial_index":146,"plugin_version":"2.1.0","time_elapsed":151621928,"subject_id":"90156","group":"Group2","full_date":"2025-11-29T00:19:56.689Z","date":"2025-11-29","time":"00:19:56"},{"rt":null,"stimulus":"<p style=\"font-size: 50px; margin: 0; text-align: center;\">+</p>","response":null,"trial_type":"html-keyboard-response","trial_index":147,"plugin_version":"2.1.0","time_elapsed":151622935,"subject_id":"90156","group":"Group2","full_date":"2025-11-29T00:19:56.689Z","date":"2025-11-29","time":"00:19:56"},{"task":"memory_phase","broad_category":"S","image_png":"S_Chert_13.png","image_id":365,"category_name":"Chert","category":23,"distinct_rating":6.57,"distinct_type":"Top","rt":null,"stimulus":"Stimuli_Rocks480/S_Chert_13.png","response":null,"trial_type":"image-keyboard-response","trial_index":148,"plugin_version":"2.1.0","time_elapsed":151625440,"subject_id":"90156","group":"Group2","full_date":"2025-11-29T00:19:56.689Z","date":"2025-11-29","time":"00:19:56"},{"rt":null,"stimulus":"<p style=\"font-size: 50px; margin: 0; text-align: center;\">+</p>","response":null,"trial_type":"html-keyboard-response","trial_index":149,"plugin_version":"2.1.0","time_elapsed":151626443,"subject_id":"90156","group":"Group2","full_date":"2025-11-29T00:19:56.689Z","date":"2025-11-29","time":"00:19:56"},{"task":"memory_phase","broad_category":"I","image_png":"I_Pegmatite_11.png","image_id":107,"category_name":"Pegmatite","category":7,"distinct_rating":7.11,"distinct_type":"Top","rt":null,"stimulus":"Stimuli_Rocks480/I_Pegmatite_11.png","response":null,"trial_type":"image-keyboard-response","trial_index":150,"plugin_version":"2.1.0","time_elapsed":151628949,"subject_id":"90156","group":"Group2","full_date":"2025-11-29T00:19:56.689Z","date":"2025-11-29","time":"00:19:56"},{"rt":null,"stimulus":"<p style=\"font-size: 50px; margin: 0; text-align: center;\">+</p>","response":null,"trial_type":"html-keyboard-response","trial_index":151,"plugin_version":"2.1.0","time_elapsed":151629951,"subject_id":"90156","group":"Group2","full_date":"2025-11-29T00:19:56.689Z","date":"2025-11-29","time":"00:19:56"},{"task":"memory_phase","broad_category":"I","image_png":"I_Basalt_10.png","image_id":26,"category_name":"Basalt","category":2,"distinct_rating":2.76,"distinct_type":"Bottom","rt":null,"stimulus":"Stimuli_Rocks480/I_Basalt_10.png","response":null,"trial_type":"image-keyboard-response","trial_index":152,"plugin_version":"2.1.0","time_elapsed":151632454,"subject_id":"90156","group":"Group2","full_date":"2025-11-29T00:19:56.689Z","date":"2025-11-29","time":"00:19:56"},{"rt":null,"stimulus":"<p style=\"font-size: 50px; margin: 0; text-align: center;\">+</p>","response":null,"trial_type":"html-keyboard-response","trial_index":153,"plugin_version":"2.1.0","time_elapsed":151633463,"subject_id":"90156","group":"Group2","full_date":"2025-11-29T00:19:56.689Z","date":"2025-11-29","time":"00:19:56"},{"task":"memory_phase","broad_category":"S","image_png":"S_Sandstone_08.png","image_id":456,"category_name":"Sandstone","category":29,"distinct_rating":1.5,"distinct_type":"Bottom","rt":null,"stimulus":"Stimuli_Rocks480/S_Sandstone_08.png","response":null,"trial_type":"image-keyboard-response","trial_index":154,"plugin_version":"2.1.0","time_elapsed":151635976,"subject_id":"90156","group":"Group2","full_date":"2025-11-29T00:19:56.689Z","date":"2025-11-29","time":"00:19:56"},{"rt":null,"stimulus":"<p style=\"font-size: 50px; margin: 0; text-align: center;\">+</p>","response":null,"trial_type":"html-keyboard-response","trial_index":155,"plugin_version":"2.1.0","time_elapsed":151636984,"subject_id":"90156","group":"Group2","full_date":"2025-11-29T00:19:56.689Z","date":"2025-11-29","time":"00:19:56"},{"task":"memory_phase","broad_category":"M","image_png":"M_Quartzite_15.png","image_id":287,"category_name":"Quartzite","category":18,"distinct_rating":2.19,"distinct_type":"Bottom","rt":null,"stimulus":"Stimuli_Rocks480/M_Quartzite_15.png","response":null,"trial_type":"image-keyboard-response","trial_index":156,"plugin_version":"2.1.0","time_elapsed":151639492,"subject_id":"90156","group":"Group2","full_date":"2025-11-29T00:19:56.689Z","date":"2025-11-29","time":"00:19:56"},{"rt":1493,"stimulus":"<p style=\"max-width: 760px; margin: auto; font-size: 35px; line-height: 1.5;\">Press SPACE to continue study phase</p>","response":" ","trial_type":"html-keyboard-response","trial_index":157,"plugin_version":"2.1.0","time_elapsed":151640986,"subject_id":"90156","group":"Group2","full_date":"2025-11-29T00:19:56.689Z","date":"2025-11-29","time":"00:19:56"},{"rt":null,"stimulus":"<p style=\"font-size: 50px; margin: 0; text-align: center;\">+</p>","response":null,"trial_type":"html-keyboard-response","trial_index":158,"plugin_version":"2.1.0","time_elapsed":151641993,"subject_id":"90156","group":"Group2","full_date":"2025-11-29T00:19:56.689Z","date":"2025-11-29","time":"00:19:56"},{"task":"memory_phase","broad_category":"S","image_png":"S_Rock Salt_15.png","image_id":447,"category_name":"Rock Salt","category":28,"distinct_rating":7.79,"distinct_type":"Top","rt":null,"stimulus":"Stimuli_Rocks480/S_Rock Salt_15.png","response":null,"trial_type":"image-keyboard-response","trial_index":159,"plugin_version":"2.1.0","time_elapsed":151644499,"subject_id":"90156","group":"Group2","full_date":"2025-11-29T00:19:56.689Z","date":"2025-11-29","time":"00:19:56"},{"rt":null,"stimulus":"<p style=\"font-size: 50px; margin: 0; text-align: center;\">+</p>","response":null,"trial_type":"html-keyboard-response","trial_index":160,"plugin_version":"2.1.0","time_elapsed":151645502,"subject_id":"90156","group":"Group2","full_date":"2025-11-29T00:19:56.689Z","date":"2025-11-29","time":"00:19:56"},{"task":"memory_phase","broad_category":"I","image_png":"I_Rhyolite_10.png","image_id":154,"category_name":"Rhyolite","category":10,"distinct_rating":2.88,"distinct_type":"Bottom","rt":null,"stimulus":"Stimuli_Rocks480/I_Rhyolite_10.png","response":null,"trial_type":"image-keyboard-response","trial_index":161,"plugin_version":"2.1.0","time_elapsed":151648016,"subject_id":"90156","group":"Group2","full_date":"2025-11-29T00:19:56.689Z","date":"2025-11-29","time":"00:19:56"},{"rt":null,"stimulus":"<p style=\"font-size: 50px; margin: 0; text-align: center;\">+</p>","response":null,"trial_type":"html-keyboard-response","trial_index":162,"plugin_version":"2.1.0","time_elapsed":151649030,"subject_id":"90156","group":"Group2","full_date":"2025-11-29T00:19:56.689Z","date":"2025-11-29","time":"00:19:56"},{"task":"memory_phase","broad_category":"I","image_png":"I_Diorite_10.png","image_id":42,"category_name":"Diorite","category":3,"distinct_rating":2.84,"distinct_type":"Bottom","rt":null,"stimulus":"Stimuli_Rocks480/I_Diorite_10.png","response":null,"trial_type":"image-keyboard-response","trial_index":163,"plugin_version":"2.1.0","time_elapsed":151651537,"subject_id":"90156","group":"Group2","full_date":"2025-11-29T00:19:56.689Z","date":"2025-11-29","time":"00:19:56"},{"rt":null,"stimulus":"<p style=\"font-size: 50px; margin: 0; text-align: center;\">+</p>","response":null,"trial_type":"html-keyboard-response","trial_index":164,"plugin_version":"2.1.0","time_elapsed":151652550,"subject_id":"90156","group":"Group2","full_date":"2025-11-29T00:19:56.689Z","date":"2025-11-29","time":"00:19:56"},{"task":"memory_phase","broad_category":"I","image_png":"I_Andesite_09.png","image_id":9,"category_name":"Andesite","category":1,"distinct_rating":2.49,"distinct_type":"Bottom","rt":null,"stimulus":"Stimuli_Rocks480/I_Andesite_09.png","response":null,"trial_type":"image-keyboard-response","trial_index":165,"plugin_version":"2.1.0","time_elapsed":151655058,"subject_id":"90156","group":"Group2","full_date":"2025-11-29T00:19:56.689Z","date":"2025-11-29","time":"00:19:56"},{"rt":null,"stimulus":"<p style=\"font-size: 50px; margin: 0; text-align: center;\">+</p>","response":null,"trial_type":"html-keyboard-response","trial_index":166,"plugin_version":"2.1.0","time_elapsed":151656067,"subject_id":"90156","group":"Group2","full_date":"2025-11-29T00:19:56.689Z","date":"2025-11-29","time":"00:19:56"},{"task":"memory_phase","broad_category":"S","image_png":"S_Dolomite_07.png","image_id":391,"category_name":"Dolomite","category":25,"distinct_rating":1.73,"distinct_type":"Bottom","rt":null,"stimulus":"Stimuli_Rocks480/S_Dolomite_07.png","response":null,"trial_type":"image-keyboard-response","trial_index":167,"plugin_version":"2.1.0","time_elapsed":151658572,"subject_id":"90156","group":"Group2","full_date":"2025-11-29T00:19:56.689Z","date":"2025-11-29","time":"00:19:56"},{"rt":null,"stimulus":"<p style=\"font-size: 50px; margin: 0; text-align: center;\">+</p>","response":null,"trial_type":"html-keyboard-response","trial_index":168,"plugin_version":"2.1.0","time_elapsed":151659586,"subject_id":"90156","group":"Group2","full_date":"2025-11-29T00:19:56.689Z","date":"2025-11-29","time":"00:19:56"},{"task":"memory_phase","broad_category":"M","image_png":"M_Marble_02.png","image_id":226,"category_name":"Marble","category":15,"distinct_rating":3.2,"distinct_type":"Bottom","rt":null,"stimulus":"Stimuli_Rocks480/M_Marble_02.png","response":null,"trial_type":"image-keyboard-response","trial_index":169,"plugin_version":"2.1.0","time_elapsed":151662092,"subject_id":"90156","group":"Group2","full_date":"2025-11-29T00:19:56.689Z","date":"2025-11-29","time":"00:19:56"},{"rt":null,"stimulus":"<p style=\"font-size: 50px; margin: 0; text-align: center;\">+</p>","response":null,"trial_type":"html-keyboard-response","trial_index":170,"plugin_version":"2.1.0","time_elapsed":151663095,"subject_id":"90156","group":"Group2","full_date":"2025-11-29T00:19:56.689Z","date":"2025-11-29","time":"00:19:56"},{"task":"memory_phase","broad_category":"I","image_png":"I_Gabbro_12.png","image_id":60,"category_name":"Gabbro","category":4,"distinct_rating":2.6,"distinct_type":"Bottom","rt":null,"stimulus":"Stimuli_Rocks480/I_Gabbro_12.png","response":null,"trial_type":"image-keyboard-response","trial_index":171,"plugin_version":"2.1.0","time_elapsed":151665610,"subject_id":"90156","group":"Group2","full_date":"2025-11-29T00:19:56.689Z","date":"2025-11-29","time":"00:19:56"},{"rt":null,"stimulus":"<p style=\"font-size: 50px; margin: 0; text-align: center;\">+</p>","response":null,"trial_type":"html-keyboard-response","trial_index":172,"plugin_version":"2.1.0","time_elapsed":151666619,"subject_id":"90156","group":"Group2","full_date":"2025-11-29T00:19:56.689Z","date":"2025-11-29","time":"00:19:56"},{"task":"memory_phase","broad_category":"M","image_png":"M_Gneiss_14.png","image_id":206,"category_name":"Gneiss","category":13,"distinct_rating":3.41,"distinct_type":"Bottom","rt":null,"stimulus":"Stimuli_Rocks480/M_Gneiss_14.png","response":null,"trial_type":"image-keyboard-response","trial_index":173,"plugin_version":"2.1.0","time_elapsed":151669129,"subject_id":"90156","group":"Group2","full_date":"2025-11-29T00:19:56.689Z","date":"2025-11-29","time":"00:19:56"},{"rt":null,"stimulus":"<p style=\"font-size: 50px; margin: 0; text-align: center;\">+</p>","response":null,"trial_type":"html-keyboard-response","trial_index":174,"plugin_version":"2.1.0","time_elapsed":151670146,"subject_id":"90156","group":"Group2","full_date":"2025-11-29T00:19:56.689Z","date":"2025-11-29","time":"00:19:56"},{"task":"memory_phase","broad_category":"I","image_png":"I_Gabbro_02.png","image_id":50,"category_name":"Gabbro","category":4,"distinct_rating":2.73,"distinct_type":"Bottom","rt":null,"stimulus":"Stimuli_Rocks480/I_Gabbro_02.png","response":null,"trial_type":"image-keyboard-response","trial_index":175,"plugin_version":"2.1.0","time_elapsed":151672660,"subject_id":"90156","group":"Group2","full_date":"2025-11-29T00:19:56.689Z","date":"2025-11-29","time":"00:19:56"},{"rt":null,"stimulus":"<p style=\"font-size: 50px; margin: 0; text-align: center;\">+</p>","response":null,"trial_type":"html-keyboard-response","trial_index":176,"plugin_version":"2.1.0","time_elapsed":151673673,"subject_id":"90156","group":"Group2","full_date":"2025-11-29T00:19:56.689Z","date":"2025-11-29","time":"00:19:56"},{"task":"memory_phase","broad_category":"S","image_png":"S_Shale_07.png","image_id":471,"category_name":"Shale","category":30,"distinct_rating":2.73,"distinct_type":"Bottom","rt":null,"stimulus":"Stimuli_Rocks480/S_Shale_07.png","response":null,"trial_type":"image-keyboard-response","trial_index":177,"plugin_version":"2.1.0","time_elapsed":151676181,"subject_id":"90156","group":"Group2","full_date":"2025-11-29T00:19:56.689Z","date":"2025-11-29","time":"00:19:56"},{"rt":null,"stimulus":"<p style=\"font-size: 50px; margin: 0; text-align: center;\">+</p>","response":null,"trial_type":"html-keyboard-response","trial_index":178,"plugin_version":"2.1.0","time_elapsed":151677188,"subject_id":"90156","group":"Group2","full_date":"2025-11-29T00:19:56.689Z","date":"2025-11-29","time":"00:19:56"},{"task":"memory_phase","broad_category":"M","image_png":"M_Slate_14.png","image_id":318,"category_name":"Slate","category":20,"distinct_rating":2.58,"distinct_type":"Bottom","rt":null,"stimulus":"Stimuli_Rocks480/M_Slate_14.png","response":null,"trial_type":"image-keyboard-response","trial_index":179,"plugin_version":"2.1.0","time_elapsed":151679702,"subject_id":"90156","group":"Group2","full_date":"2025-11-29T00:19:56.689Z","date":"2025-11-29","time":"00:19:56"},{"rt":null,"stimulus":"<p style=\"font-size: 50px; margin: 0; text-align: center;\">+</p>","response":null,"trial_type":"html-keyboard-response","trial_index":180,"plugin_version":"2.1.0","time_elapsed":151680716,"subject_id":"90156","group":"Group2","full_date":"2025-11-29T00:19:56.689Z","date":"2025-11-29","time":"00:19:56"},{"task":"memory_phase","broad_category":"M","image_png":"M_Slate_04.png","image_id":308,"category_name":"Slate","category":20,"distinct_rating":2.2,"distinct_type":"Bottom","rt":null,"stimulus":"Stimuli_Rocks480/M_Slate_04.png","response":null,"trial_type":"image-keyboard-response","trial_index":181,"plugin_version":"2.1.0","time_elapsed":151683224,"subject_id":"90156","group":"Group2","full_date":"2025-11-29T00:19:56.689Z","date":"2025-11-29","time":"00:19:56"},{"rt":null,"stimulus":"<p style=\"font-size: 50px; margin: 0; text-align: center;\">+</p>","response":null,"trial_type":"html-keyboard-response","trial_index":182,"plugin_version":"2.1.0","time_elapsed":151684232,"subject_id":"90156","group":"Group2","full_date":"2025-11-29T00:19:56.689Z","date":"2025-11-29","time":"00:19:56"},{"task":"memory_phase","broad_category":"M","image_png":"M_Marble_03.png","image_id":227,"category_name":"Marble","category":15,"distinct_rating":2.67,"distinct_type":"Bottom","rt":null,"stimulus":"Stimuli_Rocks480/M_Marble_03.png","response":null,"trial_type":"image-keyboard-response","trial_index":183,"plugin_version":"2.1.0","time_elapsed":151686737,"subject_id":"90156","group":"Group2","full_date":"2025-11-29T00:19:56.689Z","date":"2025-11-29","time":"00:19:56"},{"rt":null,"stimulus":"<p style=\"font-size: 50px; margin: 0; text-align: center;\">+</p>","response":null,"trial_type":"html-keyboard-response","trial_index":184,"plugin_version":"2.1.0","time_elapsed":151687742,"subject_id":"90156","group":"Group2","full_date":"2025-11-29T00:19:56.689Z","date":"2025-11-29","time":"00:19:56"},{"task":"memory_phase","broad_category":"M","image_png":"M_Marble_14.png","image_id":238,"category_name":"Marble","category":15,"distinct_rating":3.31,"distinct_type":"Bottom","rt":null,"stimulus":"Stimuli_Rocks480/M_Marble_14.png","response":null,"trial_type":"image-keyboard-response","trial_index":185,"plugin_version":"2.1.0","time_elapsed":151690247,"subject_id":"90156","group":"Group2","full_date":"2025-11-29T00:19:56.689Z","date":"2025-11-29","time":"00:19:56"},{"rt":null,"stimulus":"<p style=\"font-size: 50px; margin: 0; text-align: center;\">+</p>","response":null,"trial_type":"html-keyboard-response","trial_index":186,"plugin_version":"2.1.0","time_elapsed":151691263,"subject_id":"90156","group":"Group2","full_date":"2025-11-29T00:19:56.689Z","date":"2025-11-29","time":"00:19:56"},{"task":"memory_phase","broad_category":"S","image_png":"S_Dolomite_01.png","image_id":385,"category_name":"Dolomite","category":25,"distinct_rating":1.43,"distinct_type":"Bottom","rt":null,"stimulus":"Stimuli_Rocks480/S_Dolomite_01.png","response":null,"trial_type":"image-keyboard-response","trial_index":187,"plugin_version":"2.1.0","time_elapsed":151693775,"subject_id":"90156","group":"Group2","full_date":"2025-11-29T00:19:56.689Z","date":"2025-11-29","time":"00:19:56"},{"rt":null,"stimulus":"<p style=\"font-size: 50px; margin: 0; text-align: center;\">+</p>","response":null,"trial_type":"html-keyboard-response","trial_index":188,"plugin_version":"2.1.0","time_elapsed":151694777,"subject_id":"90156","group":"Group2","full_date":"2025-11-29T00:19:56.689Z","date":"2025-11-29","time":"00:19:56"},{"task":"memory_phase","broad_category":"S","image_png":"S_Sandstone_11.png","image_id":459,"category_name":"Sandstone","category":29,"distinct_rating":1.82,"distinct_type":"Bottom","rt":null,"stimulus":"Stimuli_Rocks480/S_Sandstone_11.png","response":null,"trial_type":"image-keyboard-response","trial_index":189,"plugin_version":"2.1.0","time_elapsed":151697290,"subject_id":"90156","group":"Group2","full_date":"2025-11-29T00:19:56.689Z","date":"2025-11-29","time":"00:19:56"},{"rt":null,"stimulus":"<p style=\"font-size: 50px; margin: 0; text-align: center;\">+</p>","response":null,"trial_type":"html-keyboard-response","trial_index":190,"plugin_version":"2.1.0","time_elapsed":151698307,"subject_id":"90156","group":"Group2","full_date":"2025-11-29T00:19:56.689Z","date":"2025-11-29","time":"00:19:56"},{"task":"memory_phase","broad_category":"I","image_png":"I_Obsidian_06.png","image_id":86,"category_name":"Obsidian","category":6,"distinct_rating":8.01,"distinct_type":"Top","rt":null,"stimulus":"Stimuli_Rocks480/I_Obsidian_06.png","response":null,"trial_type":"image-keyboard-response","trial_index":191,"plugin_version":"2.1.0","time_elapsed":151700826,"subject_id":"90156","group":"Group2","full_date":"2025-11-29T00:19:56.689Z","date":"2025-11-29","time":"00:19:56"},{"rt":null,"stimulus":"<p style=\"font-size: 50px; margin: 0; text-align: center;\">+</p>","response":null,"trial_type":"html-keyboard-response","trial_index":192,"plugin_version":"2.1.0","time_elapsed":151701840,"subject_id":"90156","group":"Group2","full_date":"2025-11-29T00:19:56.689Z","date":"2025-11-29","time":"00:19:56"},{"task":"memory_phase","broad_category":"I","image_png":"I_Rhyolite_08.png","image_id":152,"category_name":"Rhyolite","category":10,"distinct_rating":1.38,"distinct_type":"Bottom","rt":null,"stimulus":"Stimuli_Rocks480/I_Rhyolite_08.png","response":null,"trial_type":"image-keyboard-response","trial_index":193,"plugin_version":"2.1.0","time_elapsed":151704346,"subject_id":"90156","group":"Group2","full_date":"2025-11-29T00:19:56.689Z","date":"2025-11-29","time":"00:19:56"},{"rt":null,"stimulus":"<p style=\"font-size: 50px; margin: 0; text-align: center;\">+</p>","response":null,"trial_type":"html-keyboard-response","trial_index":194,"plugin_version":"2.1.0","time_elapsed":151705359,"subject_id":"90156","group":"Group2","full_date":"2025-11-29T00:19:56.689Z","date":"2025-11-29","time":"00:19:56"},{"task":"memory_phase","broad_category":"M","image_png":"M_Quartzite_07.png","image_id":279,"category_name":"Quartzite","category":18,"distinct_rating":1.97,"distinct_type":"Bottom","rt":null,"stimulus":"Stimuli_Rocks480/M_Quartzite_07.png","response":null,"trial_type":"image-keyboard-response","trial_index":195,"plugin_version":"2.1.0","time_elapsed":151707863,"subject_id":"90156","group":"Group2","full_date":"2025-11-29T00:19:56.689Z","date":"2025-11-29","time":"00:19:56"},{"rt":null,"stimulus":"<p style=\"font-size: 50px; margin: 0; text-align: center;\">+</p>","response":null,"trial_type":"html-keyboard-response","trial_index":196,"plugin_version":"2.1.0","time_elapsed":151708869,"subject_id":"90156","group":"Group2","full_date":"2025-11-29T00:19:56.689Z","date":"2025-11-29","time":"00:19:56"},{"task":"memory_phase","broad_category":"M","image_png":"M_Quartzite_12.png","image_id":284,"category_name":"Quartzite","category":18,"distinct_rating":1.92,"distinct_type":"Bottom","rt":null,"stimulus":"Stimuli_Rocks480/M_Quartzite_12.png","response":null,"trial_type":"image-keyboard-response","trial_index":197,"plugin_version":"2.1.0","time_elapsed":151711375,"subject_id":"90156","group":"Group2","full_date":"2025-11-29T00:19:56.689Z","date":"2025-11-29","time":"00:19:56"},{"rt":null,"stimulus":"<p style=\"font-size: 50px; margin: 0; text-align: center;\">+</p>","response":null,"trial_type":"html-keyboard-response","trial_index":198,"plugin_version":"2.1.0","time_elapsed":151712389,"subject_id":"90156","group":"Group2","full_date":"2025-11-29T00:19:56.689Z","date":"2025-11-29","time":"00:19:56"},{"task":"memory_phase","broad_category":"M","image_png":"M_Gneiss_10.png","image_id":202,"category_name":"Gneiss","category":13,"distinct_rating":3.09,"distinct_type":"Bottom","rt":null,"stimulus":"Stimuli_Rocks480/M_Gneiss_10.png","response":null,"trial_type":"image-keyboard-response","trial_index":199,"plugin_version":"2.1.0","time_elapsed":151714899,"subject_id":"90156","group":"Group2","full_date":"2025-11-29T00:19:56.689Z","date":"2025-11-29","time":"00:19:56"},{"rt":null,"stimulus":"<p style=\"font-size: 50px; margin: 0; text-align: center;\">+</p>","response":null,"trial_type":"html-keyboard-response","trial_index":200,"plugin_version":"2.1.0","time_elapsed":151715901,"subject_id":"90156","group":"Group2","full_date":"2025-11-29T00:19:56.689Z","date":"2025-11-29","time":"00:19:56"},{"task":"memory_phase","broad_category":"I","image_png":"I_Andesite_03.png","image_id":3,"category_name":"Andesite","category":1,"distinct_rating":3.17,"distinct_type":"Bottom","rt":null,"stimulus":"Stimuli_Rocks480/I_Andesite_03.png","response":null,"trial_type":"image-keyboard-response","trial_index":201,"plugin_version":"2.1.0","time_elapsed":151718414,"subject_id":"90156","group":"Group2","full_date":"2025-11-29T00:19:56.689Z","date":"2025-11-29","time":"00:19:56"},{"rt":null,"stimulus":"<p style=\"font-size: 50px; margin: 0; text-align: center;\">+</p>","response":null,"trial_type":"html-keyboard-response","trial_index":202,"plugin_version":"2.1.0","time_elapsed":151719431,"subject_id":"90156","group":"Group2","full_date":"2025-11-29T00:19:56.689Z","date":"2025-11-29","time":"00:19:56"},{"task":"memory_phase","broad_category":"S","image_png":"S_Rock Salt_13.png","image_id":445,"category_name":"Rock Salt","category":28,"distinct_rating":7.58,"distinct_type":"Top","rt":null,"stimulus":"Stimuli_Rocks480/S_Rock Salt_13.png","response":null,"trial_type":"image-keyboard-response","trial_index":203,"plugin_version":"2.1.0","time_elapsed":151721937,"subject_id":"90156","group":"Group2","full_date":"2025-11-29T00:19:56.689Z","date":"2025-11-29","time":"00:19:56"},{"rt":null,"stimulus":"<p style=\"font-size: 50px; margin: 0; text-align: center;\">+</p>","response":null,"trial_type":"html-keyboard-response","trial_index":204,"plugin_version":"2.1.0","time_elapsed":151722949,"subject_id":"90156","group":"Group2","full_date":"2025-11-29T00:19:56.689Z","date":"2025-11-29","time":"00:19:56"},{"task":"memory_phase","broad_category":"M","image_png":"M_Slate_10.png","image_id":314,"category_name":"Slate","category":20,"distinct_rating":1.94,"distinct_type":"Bottom","rt":null,"stimulus":"Stimuli_Rocks480/M_Slate_10.png","response":null,"trial_type":"image-keyboard-response","trial_index":205,"plugin_version":"2.1.0","time_elapsed":151725452,"subject_id":"90156","group":"Group2","full_date":"2025-11-29T00:19:56.689Z","date":"2025-11-29","time":"00:19:56"},{"rt":null,"stimulus":"<p style=\"font-size: 50px; margin: 0; text-align: center;\">+</p>","response":null,"trial_type":"html-keyboard-response","trial_index":206,"plugin_version":"2.1.0","time_elapsed":151726468,"subject_id":"90156","group":"Group2","full_date":"2025-11-29T00:19:56.689Z","date":"2025-11-29","time":"00:19:56"},{"task":"memory_phase","broad_category":"I","image_png":"I_Rhyolite_05.png","image_id":149,"category_name":"Rhyolite","category":10,"distinct_rating":3.02,"distinct_type":"Bottom","rt":null,"stimulus":"Stimuli_Rocks480/I_Rhyolite_05.png","response":null,"trial_type":"image-keyboard-response","trial_index":207,"plugin_version":"2.1.0","time_elapsed":151728979,"subject_id":"90156","group":"Group2","full_date":"2025-11-29T00:19:56.689Z","date":"2025-11-29","time":"00:19:56"},{"rt":1755,"stimulus":"<p style=\"max-width: 760px; margin: auto; font-size: 35px; line-height: 1.5;\">You have completed 2 study phases. Now, we'll show you all the images again 1 more time.<br><br>Press SPACE to continue</p>","response":" ","trial_type":"html-keyboard-response","trial_index":208,"plugin_version":"2.1.0","time_elapsed":151730736,"subject_id":"90156","group":"Group2","full_date":"2025-11-29T00:19:56.689Z","date":"2025-11-29","time":"00:19:56"},{"rt":null,"stimulus":"<p style=\"font-size: 50px; margin: 0; text-align: center;\">+</p>","response":null,"trial_type":"html-keyboard-response","trial_index":209,"plugin_version":"2.1.0","time_elapsed":151731741,"subject_id":"90156","group":"Group2","full_date":"2025-11-29T00:19:56.689Z","date":"2025-11-29","time":"00:19:56"},{"task":"memory_phase","broad_category":"S","image_png":"S_Sandstone_08.png","image_id":456,"category_name":"Sandstone","category":29,"distinct_rating":1.5,"distinct_type":"Bottom","rt":null,"stimulus":"Stimuli_Rocks480/S_Sandstone_08.png","response":null,"trial_type":"image-keyboard-response","trial_index":210,"plugin_version":"2.1.0","time_elapsed":151734257,"subject_id":"90156","group":"Group2","full_date":"2025-11-29T00:19:56.689Z","date":"2025-11-29","time":"00:19:56"},{"rt":null,"stimulus":"<p style=\"font-size: 50px; margin: 0; text-align: center;\">+</p>","response":null,"trial_type":"html-keyboard-response","trial_index":211,"plugin_version":"2.1.0","time_elapsed":151735263,"subject_id":"90156","group":"Group2","full_date":"2025-11-29T00:19:56.689Z","date":"2025-11-29","time":"00:19:56"},{"task":"memory_phase","broad_category":"S","image_png":"S_Rock Salt_13.png","image_id":445,"category_name":"Rock Salt","category":28,"distinct_rating":7.58,"distinct_type":"Top","rt":null,"stimulus":"Stimuli_Rocks480/S_Rock Salt_13.png","response":null,"trial_type":"image-keyboard-response","trial_index":212,"plugin_version":"2.1.0","time_elapsed":151737780,"subject_id":"90156","group":"Group2","full_date":"2025-11-29T00:19:56.689Z","date":"2025-11-29","time":"00:19:56"},{"rt":null,"stimulus":"<p style=\"font-size: 50px; margin: 0; text-align: center;\">+</p>","response":null,"trial_type":"html-keyboard-response","trial_index":213,"plugin_version":"2.1.0","time_elapsed":151738784,"subject_id":"90156","group":"Group2","full_date":"2025-11-29T00:19:56.689Z","date":"2025-11-29","time":"00:19:56"},{"task":"memory_phase","broad_category":"M","image_png":"M_Phyllite_02.png","image_id":258,"category_name":"Phyllite","category":17,"distinct_rating":2.89,"distinct_type":"Bottom","rt":null,"stimulus":"Stimuli_Rocks480/M_Phyllite_02.png","response":null,"trial_type":"image-keyboard-response","trial_index":214,"plugin_version":"2.1.0","time_elapsed":151741290,"subject_id":"90156","group":"Group2","full_date":"2025-11-29T00:19:56.689Z","date":"2025-11-29","time":"00:19:56"},{"rt":null,"stimulus":"<p style=\"font-size: 50px; margin: 0; text-align: center;\">+</p>","response":null,"trial_type":"html-keyboard-response","trial_index":215,"plugin_version":"2.1.0","time_elapsed":151742300,"subject_id":"90156","group":"Group2","full_date":"2025-11-29T00:19:56.689Z","date":"2025-11-29","time":"00:19:56"},{"task":"memory_phase","broad_category":"S","image_png":"S_Dolomite_16.png","image_id":400,"category_name":"Dolomite","category":25,"distinct_rating":1.71,"distinct_type":"Bottom","rt":null,"stimulus":"Stimuli_Rocks480/S_Dolomite_16.png","response":null,"trial_type":"image-keyboard-response","trial_index":216,"plugin_version":"2.1.0","time_elapsed":151744817,"subject_id":"90156","group":"Group2","full_date":"2025-11-29T00:19:56.689Z","date":"2025-11-29","time":"00:19:56"},{"rt":null,"stimulus":"<p style=\"font-size: 50px; margin: 0; text-align: center;\">+</p>","response":null,"trial_type":"html-keyboard-response","trial_index":217,"plugin_version":"2.1.0","time_elapsed":151745830,"subject_id":"90156","group":"Group2","full_date":"2025-11-29T00:19:56.689Z","date":"2025-11-29","time":"00:19:56"},{"task":"memory_phase","broad_category":"I","image_png":"I_Basalt_13.png","image_id":29,"category_name":"Basalt","category":2,"distinct_rating":2.68,"distinct_type":"Bottom","rt":null,"stimulus":"Stimuli_Rocks480/I_Basalt_13.png","response":null,"trial_type":"image-keyboard-response","trial_index":218,"plugin_version":"2.1.0","time_elapsed":151748335,"subject_id":"90156","group":"Group2","full_date":"2025-11-29T00:19:56.689Z","date":"2025-11-29","time":"00:19:56"},{"rt":null,"stimulus":"<p style=\"font-size: 50px; margin: 0; text-align: center;\">+</p>","response":null,"trial_type":"html-keyboard-response","trial_index":219,"plugin_version":"2.1.0","time_elapsed":151749339,"subject_id":"90156","group":"Group2","full_date":"2025-11-29T00:19:56.689Z","date":"2025-11-29","time":"00:19:56"},{"task":"memory_phase","broad_category":"M","image_png":"M_Quartzite_12.png","image_id":284,"category_name":"Quartzite","category":18,"distinct_rating":1.92,"distinct_type":"Bottom","rt":null,"stimulus":"Stimuli_Rocks480/M_Quartzite_12.png","response":null,"trial_type":"image-keyboard-response","trial_index":220,"plugin_version":"2.1.0","time_elapsed":151751843,"subject_id":"90156","group":"Group2","full_date":"2025-11-29T00:19:56.689Z","date":"2025-11-29","time":"00:19:56"},{"rt":null,"stimulus":"<p style=\"font-size: 50px; margin: 0; text-align: center;\">+</p>","response":null,"trial_type":"html-keyboard-response","trial_index":221,"plugin_version":"2.1.0","time_elapsed":151752854,"subject_id":"90156","group":"Group2","full_date":"2025-11-29T00:19:56.689Z","date":"2025-11-29","time":"00:19:56"},{"task":"memory_phase","broad_category":"I","image_png":"I_Gabbro_14.png","image_id":62,"category_name":"Gabbro","category":4,"distinct_rating":2.95,"distinct_type":"Bottom","rt":null,"stimulus":"Stimuli_Rocks480/I_Gabbro_14.png","response":null,"trial_type":"image-keyboard-response","trial_index":222,"plugin_version":"2.1.0","time_elapsed":151755359,"subject_id":"90156","group":"Group2","full_date":"2025-11-29T00:19:56.689Z","date":"2025-11-29","time":"00:19:56"},{"rt":null,"stimulus":"<p style=\"font-size: 50px; margin: 0; text-align: center;\">+</p>","response":null,"trial_type":"html-keyboard-response","trial_index":223,"plugin_version":"2.1.0","time_elapsed":151756375,"subject_id":"90156","group":"Group2","full_date":"2025-11-29T00:19:56.689Z","date":"2025-11-29","time":"00:19:56"},{"task":"memory_phase","broad_category":"M","image_png":"M_Slate_14.png","image_id":318,"category_name":"Slate","category":20,"distinct_rating":2.58,"distinct_type":"Bottom","rt":null,"stimulus":"Stimuli_Rocks480/M_Slate_14.png","response":null,"trial_type":"image-keyboard-response","trial_index":224,"plugin_version":"2.1.0","time_elapsed":151758893,"subject_id":"90156","group":"Group2","full_date":"2025-11-29T00:19:56.689Z","date":"2025-11-29","time":"00:19:56"},{"rt":null,"stimulus":"<p style=\"font-size: 50px; margin: 0; text-align: center;\">+</p>","response":null,"trial_type":"html-keyboard-response","trial_index":225,"plugin_version":"2.1.0","time_elapsed":151759896,"subject_id":"90156","group":"Group2","full_date":"2025-11-29T00:19:56.689Z","date":"2025-11-29","time":"00:19:56"},{"task":"memory_phase","broad_category":"I","image_png":"I_Andesite_04.png","image_id":4,"category_name":"Andesite","category":1,"distinct_rating":3.18,"distinct_type":"Bottom","rt":null,"stimulus":"Stimuli_Rocks480/I_Andesite_04.png","response":null,"trial_type":"image-keyboard-response","trial_index":226,"plugin_version":"2.1.0","time_elapsed":151762408,"subject_id":"90156","group":"Group2","full_date":"2025-11-29T00:19:56.689Z","date":"2025-11-29","time":"00:19:56"},{"rt":null,"stimulus":"<p style=\"font-size: 50px; margin: 0; text-align: center;\">+</p>","response":null,"trial_type":"html-keyboard-response","trial_index":227,"plugin_version":"2.1.0","time_elapsed":151763412,"subject_id":"90156","group":"Group2","full_date":"2025-11-29T00:19:56.689Z","date":"2025-11-29","time":"00:19:56"},{"task":"memory_phase","broad_category":"I","image_png":"I_Pumice_13.png","image_id":141,"category_name":"Pumice","category":9,"distinct_rating":3.12,"distinct_type":"Bottom","rt":null,"stimulus":"Stimuli_Rocks480/I_Pumice_13.png","response":null,"trial_type":"image-keyboard-response","trial_index":228,"plugin_version":"2.1.0","time_elapsed":151765925,"subject_id":"90156","group":"Group2","full_date":"2025-11-29T00:19:56.689Z","date":"2025-11-29","time":"00:19:56"},{"rt":null,"stimulus":"<p style=\"font-size: 50px; margin: 0; text-align: center;\">+</p>","response":null,"trial_type":"html-keyboard-response","trial_index":229,"plugin_version":"2.1.0","time_elapsed":151766937,"subject_id":"90156","group":"Group2","full_date":"2025-11-29T00:19:56.689Z","date":"2025-11-29","time":"00:19:56"},{"task":"memory_phase","broad_category":"M","image_png":"M_Slate_04.png","image_id":308,"category_name":"Slate","category":20,"distinct_rating":2.2,"distinct_type":"Bottom","rt":null,"stimulus":"Stimuli_Rocks480/M_Slate_04.png","response":null,"trial_type":"image-keyboard-response","trial_index":230,"plugin_version":"2.1.0","time_elapsed":151769455,"subject_id":"90156","group":"Group2","full_date":"2025-11-29T00:19:56.689Z","date":"2025-11-29","time":"00:19:56"},{"rt":null,"stimulus":"<p style=\"font-size: 50px; margin: 0; text-align: center;\">+</p>","response":null,"trial_type":"html-keyboard-response","trial_index":231,"plugin_version":"2.1.0","time_elapsed":151770463,"subject_id":"90156","group":"Group2","full_date":"2025-11-29T00:19:56.689Z","date":"2025-11-29","time":"00:19:56"},{"task":"memory_phase","broad_category":"I","image_png":"I_Diorite_15.png","image_id":47,"category_name":"Diorite","category":3,"distinct_rating":3.05,"distinct_type":"Bottom","rt":null,"stimulus":"Stimuli_Rocks480/I_Diorite_15.png","response":null,"trial_type":"image-keyboard-response","trial_index":232,"plugin_version":"2.1.0","time_elapsed":151772968,"subject_id":"90156","group":"Group2","full_date":"2025-11-29T00:19:56.689Z","date":"2025-11-29","time":"00:19:56"},{"rt":null,"stimulus":"<p style=\"font-size: 50px; margin: 0; text-align: center;\">+</p>","response":null,"trial_type":"html-keyboard-response","trial_index":233,"plugin_version":"2.1.0","time_elapsed":151773974,"subject_id":"90156","group":"Group2","full_date":"2025-11-29T00:19:56.689Z","date":"2025-11-29","time":"00:19:56"},{"task":"memory_phase","broad_category":"S","image_png":"S_Rock Salt_15.png","image_id":447,"category_name":"Rock Salt","category":28,"distinct_rating":7.79,"distinct_type":"Top","rt":null,"stimulus":"Stimuli_Rocks480/S_Rock Salt_15.png","response":null,"trial_type":"image-keyboard-response","trial_index":234,"plugin_version":"2.1.0","time_elapsed":151776484,"subject_id":"90156","group":"Group2","full_date":"2025-11-29T00:19:56.689Z","date":"2025-11-29","time":"00:19:56"},{"rt":null,"stimulus":"<p style=\"font-size: 50px; margin: 0; text-align: center;\">+</p>","response":null,"trial_type":"html-keyboard-response","trial_index":235,"plugin_version":"2.1.0","time_elapsed":151777491,"subject_id":"90156","group":"Group2","full_date":"2025-11-29T00:19:56.689Z","date":"2025-11-29","time":"00:19:56"},{"task":"memory_phase","broad_category":"S","image_png":"S_Conglomerate_14.png","image_id":382,"category_name":"Conglomerate","category":24,"distinct_rating":6.86,"distinct_type":"Top","rt":null,"stimulus":"Stimuli_Rocks480/S_Conglomerate_14.png","response":null,"trial_type":"image-keyboard-response","trial_index":236,"plugin_version":"2.1.0","time_elapsed":151779999,"subject_id":"90156","group":"Group2","full_date":"2025-11-29T00:19:56.689Z","date":"2025-11-29","time":"00:19:56"},{"rt":null,"stimulus":"<p style=\"font-size: 50px; margin: 0; text-align: center;\">+</p>","response":null,"trial_type":"html-keyboard-response","trial_index":237,"plugin_version":"2.1.0","time_elapsed":151781015,"subject_id":"90156","group":"Group2","full_date":"2025-11-29T00:19:56.689Z","date":"2025-11-29","time":"00:19:56"},{"task":"memory_phase","broad_category":"M","image_png":"M_Phyllite_05.png","image_id":261,"category_name":"Phyllite","category":17,"distinct_rating":2.14,"distinct_type":"Bottom","rt":null,"stimulus":"Stimuli_Rocks480/M_Phyllite_05.png","response":null,"trial_type":"image-keyboard-response","trial_index":238,"plugin_version":"2.1.0","time_elapsed":151783530,"subject_id":"90156","group":"Group2","full_date":"2025-11-29T00:19:56.689Z","date":"2025-11-29","time":"00:19:56"},{"rt":null,"stimulus":"<p style=\"font-size: 50px; margin: 0; text-align: center;\">+</p>","response":null,"trial_type":"html-keyboard-response","trial_index":239,"plugin_version":"2.1.0","time_elapsed":151784536,"subject_id":"90156","group":"Group2","full_date":"2025-11-29T00:19:56.689Z","date":"2025-11-29","time":"00:19:56"},{"task":"memory_phase","broad_category":"M","image_png":"M_Quartzite_07.png","image_id":279,"category_name":"Quartzite","category":18,"distinct_rating":1.97,"distinct_type":"Bottom","rt":null,"stimulus":"Stimuli_Rocks480/M_Quartzite_07.png","response":null,"trial_type":"image-keyboard-response","trial_index":240,"plugin_version":"2.1.0","time_elapsed":151787048,"subject_id":"90156","group":"Group2","full_date":"2025-11-29T00:19:56.689Z","date":"2025-11-29","time":"00:19:56"},{"rt":null,"stimulus":"<p style=\"font-size: 50px; margin: 0; text-align: center;\">+</p>","response":null,"trial_type":"html-keyboard-response","trial_index":241,"plugin_version":"2.1.0","time_elapsed":151788062,"subject_id":"90156","group":"Group2","full_date":"2025-11-29T00:19:56.689Z","date":"2025-11-29","time":"00:19:56"},{"task":"memory_phase","broad_category":"I","image_png":"I_Peridotite_13.png","image_id":125,"category_name":"Peridotite","category":8,"distinct_rating":7.28,"distinct_type":"Top","rt":null,"stimulus":"Stimuli_Rocks480/I_Peridotite_13.png","response":null,"trial_type":"image-keyboard-response","trial_index":242,"plugin_version":"2.1.0","time_elapsed":151790570,"subject_id":"90156","group":"Group2","full_date":"2025-11-29T00:19:56.689Z","date":"2025-11-29","time":"00:19:56"},{"rt":null,"stimulus":"<p style=\"font-size: 50px; margin: 0; text-align: center;\">+</p>","response":null,"trial_type":"html-keyboard-response","trial_index":243,"plugin_version":"2.1.0","time_elapsed":151791575,"subject_id":"90156","group":"Group2","full_date":"2025-11-29T00:19:56.689Z","date":"2025-11-29","time":"00:19:56"},{"task":"memory_phase","broad_category":"S","image_png":"S_Dolomite_01.png","image_id":385,"category_name":"Dolomite","category":25,"distinct_rating":1.43,"distinct_type":"Bottom","rt":null,"stimulus":"Stimuli_Rocks480/S_Dolomite_01.png","response":null,"trial_type":"image-keyboard-response","trial_index":244,"plugin_version":"2.1.0","time_elapsed":151794091,"subject_id":"90156","group":"Group2","full_date":"2025-11-29T00:19:56.689Z","date":"2025-11-29","time":"00:19:56"},{"rt":null,"stimulus":"<p style=\"font-size: 50px; margin: 0; text-align: center;\">+</p>","response":null,"trial_type":"html-keyboard-response","trial_index":245,"plugin_version":"2.1.0","time_elapsed":151795107,"subject_id":"90156","group":"Group2","full_date":"2025-11-29T00:19:56.689Z","date":"2025-11-29","time":"00:19:56"},{"task":"memory_phase","broad_category":"M","image_png":"M_Gneiss_15.png","image_id":207,"category_name":"Gneiss","category":13,"distinct_rating":3.11,"distinct_type":"Bottom","rt":null,"stimulus":"Stimuli_Rocks480/M_Gneiss_15.png","response":null,"trial_type":"image-keyboard-response","trial_index":246,"plugin_version":"2.1.0","time_elapsed":151797613,"subj