[{"width":1519,"height":884,"webaudio":true,"browser":"edge-chromium","browser_version":"142.0.0","mobile":false,"os":"Windows 10","fullscreen":true,"vsync_rate":59.2,"webcam":true,"microphone":true,"trial_type":"browser-check","trial_index":0,"plugin_version":"2.1.0","time_elapsed":1025,"subject_id":"88757","group":"Group2","full_date":"2025-12-04T16:33:48.685Z","date":"2025-12-04","time":"16:33:48"},{"success":true,"timeout":false,"failed_images":[],"failed_audio":[],"failed_video":[],"trial_type":"preload","trial_index":1,"plugin_version":"2.1.0","time_elapsed":3053,"subject_id":"88757","group":"Group2","full_date":"2025-12-04T16:33:48.685Z","date":"2025-12-04","time":"16:33:48"},{"rt":5740,"url":"SONA_consent_memorability.html","trial_type":"external-html","trial_index":2,"plugin_version":"2.1.0","time_elapsed":8813,"subject_id":"88757","group":"Group2","full_date":"2025-12-04T16:33:48.685Z","date":"2025-12-04","time":"16:33:48"},{"success":true,"rt":1435,"trial_type":"fullscreen","trial_index":3,"plugin_version":"2.1.0","time_elapsed":11270,"subject_id":"88757","group":"Group2","full_date":"2025-12-04T16:33:48.685Z","date":"2025-12-04","time":"16:33:48"},{"rt":1521,"stimulus":"<div style=\"max-width: 760px; margin: auto; font-size: 20px; line-height: 1.5;\">\n      <h1 style=\"text-align:center; font-size: 30px;\">Instructions</h1>\n      <p>\n        Welcome to the study on <b>visual memory</b>. This experiment consists of <b>two phases</b>: \n        a <b>study phase</b> and a <b>test phase</b>.\n      </p>\n      <p>\n        In the study phase, you will see a series of rock images along with their category labels.\n        The images will appear one at a time.\n        <b>Your task</b> is to learn the categories to which the rock images belong \n        and to remember each image as accurately as possible.\n      </p> \n      <p>\n        Note that we will repeat the study phase <b>3 times</b>, \n        so you will have multiple opportunities to see and remember each image.\n      </p>\n      <p>\n        After the study phase, <b>your memory will be tested</b>. \n        Additional instructions for the test phase will be provided at that time.\n      </p>\n      <p>\n        If your computer has multiple <b>language settings</b> (e.g., English and another language),\n        please make sure it is set to English before starting.\n      </p>\n      <p>\n        You can track your progress using the <b>completion bar</b> at the top of the screen. \n        Please note that the bar will refresh when the test phase begins \n        to give you an accurate sense of your progress in both phases.\n      </p> \n      <p>\n        Press the button below when you are ready to begin.\n      </p>\n    </div>","response":0,"trial_type":"html-button-response","trial_index":4,"plugin_version":"2.1.0","time_elapsed":12794,"subject_id":"88757","group":"Group2","full_date":"2025-12-04T16:33:48.685Z","date":"2025-12-04","time":"16:33:48"},{"rt":null,"stimulus":"<p style=\"font-size: 50px; margin: 0; text-align: center;\">+</p>","response":null,"trial_type":"html-keyboard-response","trial_index":5,"plugin_version":"2.1.0","time_elapsed":13818,"subject_id":"88757","group":"Group2","full_date":"2025-12-04T16:33:48.685Z","date":"2025-12-04","time":"16:33:48"},{"task":"memory_phase","broad_category":"M","image_png":"M_Gneiss_15.png","image_id":207,"category_name":"Gneiss","category":13,"distinct_rating":3.11,"distinct_type":"Bottom","rt":null,"stimulus":"Stimuli_Rocks480/M_Gneiss_15.png","response":null,"trial_type":"image-keyboard-response","trial_index":6,"plugin_version":"2.1.0","time_elapsed":16336,"subject_id":"88757","group":"Group2","full_date":"2025-12-04T16:33:48.685Z","date":"2025-12-04","time":"16:33:48"},{"rt":null,"stimulus":"<p style=\"font-size: 50px; margin: 0; text-align: center;\">+</p>","response":null,"trial_type":"html-keyboard-response","trial_index":7,"plugin_version":"2.1.0","time_elapsed":17340,"subject_id":"88757","group":"Group2","full_date":"2025-12-04T16:33:48.685Z","date":"2025-12-04","time":"16:33:48"},{"task":"memory_phase","broad_category":"I","image_png":"I_Basalt_10.png","image_id":26,"category_name":"Basalt","category":2,"distinct_rating":2.76,"distinct_type":"Bottom","rt":null,"stimulus":"Stimuli_Rocks480/I_Basalt_10.png","response":null,"trial_type":"image-keyboard-response","trial_index":8,"plugin_version":"2.1.0","time_elapsed":19850,"subject_id":"88757","group":"Group2","full_date":"2025-12-04T16:33:48.685Z","date":"2025-12-04","time":"16:33:48"},{"rt":null,"stimulus":"<p style=\"font-size: 50px; margin: 0; text-align: center;\">+</p>","response":null,"trial_type":"html-keyboard-response","trial_index":9,"plugin_version":"2.1.0","time_elapsed":20871,"subject_id":"88757","group":"Group2","full_date":"2025-12-04T16:33:48.685Z","date":"2025-12-04","time":"16:33:48"},{"task":"memory_phase","broad_category":"S","image_png":"S_Dolomite_01.png","image_id":385,"category_name":"Dolomite","category":25,"distinct_rating":1.43,"distinct_type":"Bottom","rt":null,"stimulus":"Stimuli_Rocks480/S_Dolomite_01.png","response":null,"trial_type":"image-keyboard-response","trial_index":10,"plugin_version":"2.1.0","time_elapsed":23389,"subject_id":"88757","group":"Group2","full_date":"2025-12-04T16:33:48.685Z","date":"2025-12-04","time":"16:33:48"},{"rt":null,"stimulus":"<p style=\"font-size: 50px; margin: 0; text-align: center;\">+</p>","response":null,"trial_type":"html-keyboard-response","trial_index":11,"plugin_version":"2.1.0","time_elapsed":24404,"subject_id":"88757","group":"Group2","full_date":"2025-12-04T16:33:48.685Z","date":"2025-12-04","time":"16:33:48"},{"task":"memory_phase","broad_category":"I","image_png":"I_Pegmatite_03.png","image_id":99,"category_name":"Pegmatite","category":7,"distinct_rating":7.24,"distinct_type":"Top","rt":null,"stimulus":"Stimuli_Rocks480/I_Pegmatite_03.png","response":null,"trial_type":"image-keyboard-response","trial_index":12,"plugin_version":"2.1.0","time_elapsed":26916,"subject_id":"88757","group":"Group2","full_date":"2025-12-04T16:33:48.685Z","date":"2025-12-04","time":"16:33:48"},{"rt":null,"stimulus":"<p style=\"font-size: 50px; margin: 0; text-align: center;\">+</p>","response":null,"trial_type":"html-keyboard-response","trial_index":13,"plugin_version":"2.1.0","time_elapsed":27928,"subject_id":"88757","group":"Group2","full_date":"2025-12-04T16:33:48.685Z","date":"2025-12-04","time":"16:33:48"},{"task":"memory_phase","broad_category":"S","image_png":"S_Rock Salt_15.png","image_id":447,"category_name":"Rock Salt","category":28,"distinct_rating":7.79,"distinct_type":"Top","rt":null,"stimulus":"Stimuli_Rocks480/S_Rock Salt_15.png","response":null,"trial_type":"image-keyboard-response","trial_index":14,"plugin_version":"2.1.0","time_elapsed":30444,"subject_id":"88757","group":"Group2","full_date":"2025-12-04T16:33:48.685Z","date":"2025-12-04","time":"16:33:48"},{"rt":null,"stimulus":"<p style=\"font-size: 50px; margin: 0; text-align: center;\">+</p>","response":null,"trial_type":"html-keyboard-response","trial_index":15,"plugin_version":"2.1.0","time_elapsed":31456,"subject_id":"88757","group":"Group2","full_date":"2025-12-04T16:33:48.685Z","date":"2025-12-04","time":"16:33:48"},{"task":"memory_phase","broad_category":"S","image_png":"S_Sandstone_04.png","image_id":452,"category_name":"Sandstone","category":29,"distinct_rating":1.8,"distinct_type":"Bottom","rt":null,"stimulus":"Stimuli_Rocks480/S_Sandstone_04.png","response":null,"trial_type":"image-keyboard-response","trial_index":16,"plugin_version":"2.1.0","time_elapsed":33970,"subject_id":"88757","group":"Group2","full_date":"2025-12-04T16:33:48.685Z","date":"2025-12-04","time":"16:33:48"},{"rt":null,"stimulus":"<p style=\"font-size: 50px; margin: 0; text-align: center;\">+</p>","response":null,"trial_type":"html-keyboard-response","trial_index":17,"plugin_version":"2.1.0","time_elapsed":34984,"subject_id":"88757","group":"Group2","full_date":"2025-12-04T16:33:48.685Z","date":"2025-12-04","time":"16:33:48"},{"task":"memory_phase","broad_category":"M","image_png":"M_Quartzite_07.png","image_id":279,"category_name":"Quartzite","category":18,"distinct_rating":1.97,"distinct_type":"Bottom","rt":null,"stimulus":"Stimuli_Rocks480/M_Quartzite_07.png","response":null,"trial_type":"image-keyboard-response","trial_index":18,"plugin_version":"2.1.0","time_elapsed":37487,"subject_id":"88757","group":"Group2","full_date":"2025-12-04T16:33:48.685Z","date":"2025-12-04","time":"16:33:48"},{"rt":null,"stimulus":"<p style=\"font-size: 50px; margin: 0; text-align: center;\">+</p>","response":null,"trial_type":"html-keyboard-response","trial_index":19,"plugin_version":"2.1.0","time_elapsed":38493,"subject_id":"88757","group":"Group2","full_date":"2025-12-04T16:33:48.685Z","date":"2025-12-04","time":"16:33:48"},{"task":"memory_phase","broad_category":"I","image_png":"I_Gabbro_12.png","image_id":60,"category_name":"Gabbro","category":4,"distinct_rating":2.6,"distinct_type":"Bottom","rt":null,"stimulus":"Stimuli_Rocks480/I_Gabbro_12.png","response":null,"trial_type":"image-keyboard-response","trial_index":20,"plugin_version":"2.1.0","time_elapsed":41000,"subject_id":"88757","group":"Group2","full_date":"2025-12-04T16:33:48.685Z","date":"2025-12-04","time":"16:33:48"},{"rt":null,"stimulus":"<p style=\"font-size: 50px; margin: 0; text-align: center;\">+</p>","response":null,"trial_type":"html-keyboard-response","trial_index":21,"plugin_version":"2.1.0","time_elapsed":42004,"subject_id":"88757","group":"Group2","full_date":"2025-12-04T16:33:48.685Z","date":"2025-12-04","time":"16:33:48"},{"task":"memory_phase","broad_category":"M","image_png":"M_Marble_02.png","image_id":226,"category_name":"Marble","category":15,"distinct_rating":3.2,"distinct_type":"Bottom","rt":null,"stimulus":"Stimuli_Rocks480/M_Marble_02.png","response":null,"trial_type":"image-keyboard-response","trial_index":22,"plugin_version":"2.1.0","time_elapsed":44509,"subject_id":"88757","group":"Group2","full_date":"2025-12-04T16:33:48.685Z","date":"2025-12-04","time":"16:33:48"},{"rt":null,"stimulus":"<p style=\"font-size: 50px; margin: 0; text-align: center;\">+</p>","response":null,"trial_type":"html-keyboard-response","trial_index":23,"plugin_version":"2.1.0","time_elapsed":45523,"subject_id":"88757","group":"Group2","full_date":"2025-12-04T16:33:48.685Z","date":"2025-12-04","time":"16:33:48"},{"task":"memory_phase","broad_category":"I","image_png":"I_Rhyolite_10.png","image_id":154,"category_name":"Rhyolite","category":10,"distinct_rating":2.88,"distinct_type":"Bottom","rt":null,"stimulus":"Stimuli_Rocks480/I_Rhyolite_10.png","response":null,"trial_type":"image-keyboard-response","trial_index":24,"plugin_version":"2.1.0","time_elapsed":48039,"subject_id":"88757","group":"Group2","full_date":"2025-12-04T16:33:48.685Z","date":"2025-12-04","time":"16:33:48"},{"rt":null,"stimulus":"<p style=\"font-size: 50px; margin: 0; text-align: center;\">+</p>","response":null,"trial_type":"html-keyboard-response","trial_index":25,"plugin_version":"2.1.0","time_elapsed":49050,"subject_id":"88757","group":"Group2","full_date":"2025-12-04T16:33:48.685Z","date":"2025-12-04","time":"16:33:48"},{"task":"memory_phase","broad_category":"S","image_png":"S_Shale_07.png","image_id":471,"category_name":"Shale","category":30,"distinct_rating":2.73,"distinct_type":"Bottom","rt":null,"stimulus":"Stimuli_Rocks480/S_Shale_07.png","response":null,"trial_type":"image-keyboard-response","trial_index":26,"plugin_version":"2.1.0","time_elapsed":51559,"subject_id":"88757","group":"Group2","full_date":"2025-12-04T16:33:48.685Z","date":"2025-12-04","time":"16:33:48"},{"rt":null,"stimulus":"<p style=\"font-size: 50px; margin: 0; text-align: center;\">+</p>","response":null,"trial_type":"html-keyboard-response","trial_index":27,"plugin_version":"2.1.0","time_elapsed":52571,"subject_id":"88757","group":"Group2","full_date":"2025-12-04T16:33:48.685Z","date":"2025-12-04","time":"16:33:48"},{"task":"memory_phase","broad_category":"S","image_png":"S_Dolomite_07.png","image_id":391,"category_name":"Dolomite","category":25,"distinct_rating":1.73,"distinct_type":"Bottom","rt":null,"stimulus":"Stimuli_Rocks480/S_Dolomite_07.png","response":null,"trial_type":"image-keyboard-response","trial_index":28,"plugin_version":"2.1.0","time_elapsed":55082,"subject_id":"88757","group":"Group2","full_date":"2025-12-04T16:33:48.685Z","date":"2025-12-04","time":"16:33:48"},{"rt":null,"stimulus":"<p style=\"font-size: 50px; margin: 0; text-align: center;\">+</p>","response":null,"trial_type":"html-keyboard-response","trial_index":29,"plugin_version":"2.1.0","time_elapsed":56094,"subject_id":"88757","group":"Group2","full_date":"2025-12-04T16:33:48.685Z","date":"2025-12-04","time":"16:33:48"},{"task":"memory_phase","broad_category":"S","image_png":"S_Sandstone_08.png","image_id":456,"category_name":"Sandstone","category":29,"distinct_rating":1.5,"distinct_type":"Bottom","rt":null,"stimulus":"Stimuli_Rocks480/S_Sandstone_08.png","response":null,"trial_type":"image-keyboard-response","trial_index":30,"plugin_version":"2.1.0","time_elapsed":58611,"subject_id":"88757","group":"Group2","full_date":"2025-12-04T16:33:48.685Z","date":"2025-12-04","time":"16:33:48"},{"rt":null,"stimulus":"<p style=\"font-size: 50px; margin: 0; text-align: center;\">+</p>","response":null,"trial_type":"html-keyboard-response","trial_index":31,"plugin_version":"2.1.0","time_elapsed":59615,"subject_id":"88757","group":"Group2","full_date":"2025-12-04T16:33:48.685Z","date":"2025-12-04","time":"16:33:48"},{"task":"memory_phase","broad_category":"I","image_png":"I_Obsidian_06.png","image_id":86,"category_name":"Obsidian","category":6,"distinct_rating":8.01,"distinct_type":"Top","rt":null,"stimulus":"Stimuli_Rocks480/I_Obsidian_06.png","response":null,"trial_type":"image-keyboard-response","trial_index":32,"plugin_version":"2.1.0","time_elapsed":62121,"subject_id":"88757","group":"Group2","full_date":"2025-12-04T16:33:48.685Z","date":"2025-12-04","time":"16:33:48"},{"rt":null,"stimulus":"<p style=\"font-size: 50px; margin: 0; text-align: center;\">+</p>","response":null,"trial_type":"html-keyboard-response","trial_index":33,"plugin_version":"2.1.0","time_elapsed":63131,"subject_id":"88757","group":"Group2","full_date":"2025-12-04T16:33:48.685Z","date":"2025-12-04","time":"16:33:48"},{"task":"memory_phase","broad_category":"I","image_png":"I_Pumice_01.png","image_id":129,"category_name":"Pumice","category":9,"distinct_rating":3.25,"distinct_type":"Bottom","rt":null,"stimulus":"Stimuli_Rocks480/I_Pumice_01.png","response":null,"trial_type":"image-keyboard-response","trial_index":34,"plugin_version":"2.1.0","time_elapsed":65649,"subject_id":"88757","group":"Group2","full_date":"2025-12-04T16:33:48.685Z","date":"2025-12-04","time":"16:33:48"},{"rt":null,"stimulus":"<p style=\"font-size: 50px; margin: 0; text-align: center;\">+</p>","response":null,"trial_type":"html-keyboard-response","trial_index":35,"plugin_version":"2.1.0","time_elapsed":66663,"subject_id":"88757","group":"Group2","full_date":"2025-12-04T16:33:48.685Z","date":"2025-12-04","time":"16:33:48"},{"task":"memory_phase","broad_category":"I","image_png":"I_Diorite_10.png","image_id":42,"category_name":"Diorite","category":3,"distinct_rating":2.84,"distinct_type":"Bottom","rt":null,"stimulus":"Stimuli_Rocks480/I_Diorite_10.png","response":null,"trial_type":"image-keyboard-response","trial_index":36,"plugin_version":"2.1.0","time_elapsed":69179,"subject_id":"88757","group":"Group2","full_date":"2025-12-04T16:33:48.685Z","date":"2025-12-04","time":"16:33:48"},{"rt":null,"stimulus":"<p style=\"font-size: 50px; margin: 0; text-align: center;\">+</p>","response":null,"trial_type":"html-keyboard-response","trial_index":37,"plugin_version":"2.1.0","time_elapsed":70194,"subject_id":"88757","group":"Group2","full_date":"2025-12-04T16:33:48.685Z","date":"2025-12-04","time":"16:33:48"},{"task":"memory_phase","broad_category":"I","image_png":"I_Diorite_01.png","image_id":33,"category_name":"Diorite","category":3,"distinct_rating":2.97,"distinct_type":"Bottom","rt":null,"stimulus":"Stimuli_Rocks480/I_Diorite_01.png","response":null,"trial_type":"image-keyboard-response","trial_index":38,"plugin_version":"2.1.0","time_elapsed":72712,"subject_id":"88757","group":"Group2","full_date":"2025-12-04T16:33:48.685Z","date":"2025-12-04","time":"16:33:48"},{"rt":null,"stimulus":"<p style=\"font-size: 50px; margin: 0; text-align: center;\">+</p>","response":null,"trial_type":"html-keyboard-response","trial_index":39,"plugin_version":"2.1.0","time_elapsed":73728,"subject_id":"88757","group":"Group2","full_date":"2025-12-04T16:33:48.685Z","date":"2025-12-04","time":"16:33:48"},{"task":"memory_phase","broad_category":"M","image_png":"M_Gneiss_14.png","image_id":206,"category_name":"Gneiss","category":13,"distinct_rating":3.41,"distinct_type":"Bottom","rt":null,"stimulus":"Stimuli_Rocks480/M_Gneiss_14.png","response":null,"trial_type":"image-keyboard-response","trial_index":40,"plugin_version":"2.1.0","time_elapsed":76240,"subject_id":"88757","group":"Group2","full_date":"2025-12-04T16:33:48.685Z","date":"2025-12-04","time":"16:33:48"},{"rt":null,"stimulus":"<p style=\"font-size: 50px; margin: 0; text-align: center;\">+</p>","response":null,"trial_type":"html-keyboard-response","trial_index":41,"plugin_version":"2.1.0","time_elapsed":77248,"subject_id":"88757","group":"Group2","full_date":"2025-12-04T16:33:48.685Z","date":"2025-12-04","time":"16:33:48"},{"task":"memory_phase","broad_category":"S","image_png":"S_Dolomite_16.png","image_id":400,"category_name":"Dolomite","category":25,"distinct_rating":1.71,"distinct_type":"Bottom","rt":null,"stimulus":"Stimuli_Rocks480/S_Dolomite_16.png","response":null,"trial_type":"image-keyboard-response","trial_index":42,"plugin_version":"2.1.0","time_elapsed":79759,"subject_id":"88757","group":"Group2","full_date":"2025-12-04T16:33:48.685Z","date":"2025-12-04","time":"16:33:48"},{"rt":null,"stimulus":"<p style=\"font-size: 50px; margin: 0; text-align: center;\">+</p>","response":null,"trial_type":"html-keyboard-response","trial_index":43,"plugin_version":"2.1.0","time_elapsed":80769,"subject_id":"88757","group":"Group2","full_date":"2025-12-04T16:33:48.685Z","date":"2025-12-04","time":"16:33:48"},{"task":"memory_phase","broad_category":"S","image_png":"S_Chert_13.png","image_id":365,"category_name":"Chert","category":23,"distinct_rating":6.57,"distinct_type":"Top","rt":null,"stimulus":"Stimuli_Rocks480/S_Chert_13.png","response":null,"trial_type":"image-keyboard-response","trial_index":44,"plugin_version":"2.1.0","time_elapsed":83289,"subject_id":"88757","group":"Group2","full_date":"2025-12-04T16:33:48.685Z","date":"2025-12-04","time":"16:33:48"},{"rt":null,"stimulus":"<p style=\"font-size: 50px; margin: 0; text-align: center;\">+</p>","response":null,"trial_type":"html-keyboard-response","trial_index":45,"plugin_version":"2.1.0","time_elapsed":84297,"subject_id":"88757","group":"Group2","full_date":"2025-12-04T16:33:48.685Z","date":"2025-12-04","time":"16:33:48"},{"task":"memory_phase","broad_category":"I","image_png":"I_Pumice_14.png","image_id":142,"category_name":"Pumice","category":9,"distinct_rating":3.22,"distinct_type":"Bottom","rt":null,"stimulus":"Stimuli_Rocks480/I_Pumice_14.png","response":null,"trial_type":"image-keyboard-response","trial_index":46,"plugin_version":"2.1.0","time_elapsed":86814,"subject_id":"88757","group":"Group2","full_date":"2025-12-04T16:33:48.685Z","date":"2025-12-04","time":"16:33:48"},{"rt":null,"stimulus":"<p style=\"font-size: 50px; margin: 0; text-align: center;\">+</p>","response":null,"trial_type":"html-keyboard-response","trial_index":47,"plugin_version":"2.1.0","time_elapsed":87820,"subject_id":"88757","group":"Group2","full_date":"2025-12-04T16:33:48.685Z","date":"2025-12-04","time":"16:33:48"},{"task":"memory_phase","broad_category":"I","image_png":"I_Pumice_13.png","image_id":141,"category_name":"Pumice","category":9,"distinct_rating":3.12,"distinct_type":"Bottom","rt":null,"stimulus":"Stimuli_Rocks480/I_Pumice_13.png","response":null,"trial_type":"image-keyboard-response","trial_index":48,"plugin_version":"2.1.0","time_elapsed":90332,"subject_id":"88757","group":"Group2","full_date":"2025-12-04T16:33:48.685Z","date":"2025-12-04","time":"16:33:48"},{"rt":null,"stimulus":"<p style=\"font-size: 50px; margin: 0; text-align: center;\">+</p>","response":null,"trial_type":"html-keyboard-response","trial_index":49,"plugin_version":"2.1.0","time_elapsed":91342,"subject_id":"88757","group":"Group2","full_date":"2025-12-04T16:33:48.685Z","date":"2025-12-04","time":"16:33:48"},{"task":"memory_phase","broad_category":"M","image_png":"M_Phyllite_02.png","image_id":258,"category_name":"Phyllite","category":17,"distinct_rating":2.89,"distinct_type":"Bottom","rt":null,"stimulus":"Stimuli_Rocks480/M_Phyllite_02.png","response":null,"trial_type":"image-keyboard-response","trial_index":50,"plugin_version":"2.1.0","time_elapsed":93856,"subject_id":"88757","group":"Group2","full_date":"2025-12-04T16:33:48.685Z","date":"2025-12-04","time":"16:33:48"},{"rt":null,"stimulus":"<p style=\"font-size: 50px; margin: 0; text-align: center;\">+</p>","response":null,"trial_type":"html-keyboard-response","trial_index":51,"plugin_version":"2.1.0","time_elapsed":94867,"subject_id":"88757","group":"Group2","full_date":"2025-12-04T16:33:48.685Z","date":"2025-12-04","time":"16:33:48"},{"task":"memory_phase","broad_category":"I","image_png":"I_Andesite_04.png","image_id":4,"category_name":"Andesite","category":1,"distinct_rating":3.18,"distinct_type":"Bottom","rt":null,"stimulus":"Stimuli_Rocks480/I_Andesite_04.png","response":null,"trial_type":"image-keyboard-response","trial_index":52,"plugin_version":"2.1.0","time_elapsed":97370,"subject_id":"88757","group":"Group2","full_date":"2025-12-04T16:33:48.685Z","date":"2025-12-04","time":"16:33:48"},{"rt":null,"stimulus":"<p style=\"font-size: 50px; margin: 0; text-align: center;\">+</p>","response":null,"trial_type":"html-keyboard-response","trial_index":53,"plugin_version":"2.1.0","time_elapsed":98385,"subject_id":"88757","group":"Group2","full_date":"2025-12-04T16:33:48.685Z","date":"2025-12-04","time":"16:33:48"},{"task":"memory_phase","broad_category":"M","image_png":"M_Phyllite_05.png","image_id":261,"category_name":"Phyllite","category":17,"distinct_rating":2.14,"distinct_type":"Bottom","rt":null,"stimulus":"Stimuli_Rocks480/M_Phyllite_05.png","response":null,"trial_type":"image-keyboard-response","trial_index":54,"plugin_version":"2.1.0","time_elapsed":100897,"subject_id":"88757","group":"Group2","full_date":"2025-12-04T16:33:48.685Z","date":"2025-12-04","time":"16:33:48"},{"rt":56501,"stimulus":"<p style=\"max-width: 760px; margin: auto; font-size: 35px; line-height: 1.5;\">Press SPACE to continue study phase</p>","response":" ","trial_type":"html-keyboard-response","trial_index":55,"plugin_version":"2.1.0","time_elapsed":157401,"subject_id":"88757","group":"Group2","full_date":"2025-12-04T16:33:48.685Z","date":"2025-12-04","time":"16:33:48"},{"rt":null,"stimulus":"<p style=\"font-size: 50px; margin: 0; text-align: center;\">+</p>","response":null,"trial_type":"html-keyboard-response","trial_index":56,"plugin_version":"2.1.0","time_elapsed":158410,"subject_id":"88757","group":"Group2","full_date":"2025-12-04T16:33:48.685Z","date":"2025-12-04","time":"16:33:48"},{"task":"memory_phase","broad_category":"I","image_png":"I_Andesite_09.png","image_id":9,"category_name":"Andesite","category":1,"distinct_rating":2.49,"distinct_type":"Bottom","rt":null,"stimulus":"Stimuli_Rocks480/I_Andesite_09.png","response":null,"trial_type":"image-keyboard-response","trial_index":57,"plugin_version":"2.1.0","time_elapsed":160919,"subject_id":"88757","group":"Group2","full_date":"2025-12-04T16:33:48.685Z","date":"2025-12-04","time":"16:33:48"},{"rt":null,"stimulus":"<p style=\"font-size: 50px; margin: 0; text-align: center;\">+</p>","response":null,"trial_type":"html-keyboard-response","trial_index":58,"plugin_version":"2.1.0","time_elapsed":161934,"subject_id":"88757","group":"Group2","full_date":"2025-12-04T16:33:48.685Z","date":"2025-12-04","time":"16:33:48"},{"task":"memory_phase","broad_category":"M","image_png":"M_Gneiss_10.png","image_id":202,"category_name":"Gneiss","category":13,"distinct_rating":3.09,"distinct_type":"Bottom","rt":null,"stimulus":"Stimuli_Rocks480/M_Gneiss_10.png","response":null,"trial_type":"image-keyboard-response","trial_index":59,"plugin_version":"2.1.0","time_elapsed":164446,"subject_id":"88757","group":"Group2","full_date":"2025-12-04T16:33:48.685Z","date":"2025-12-04","time":"16:33:48"},{"rt":null,"stimulus":"<p style=\"font-size: 50px; margin: 0; text-align: center;\">+</p>","response":null,"trial_type":"html-keyboard-response","trial_index":60,"plugin_version":"2.1.0","time_elapsed":165448,"subject_id":"88757","group":"Group2","full_date":"2025-12-04T16:33:48.685Z","date":"2025-12-04","time":"16:33:48"},{"task":"memory_phase","broad_category":"I","image_png":"I_Peridotite_13.png","image_id":125,"category_name":"Peridotite","category":8,"distinct_rating":7.28,"distinct_type":"Top","rt":null,"stimulus":"Stimuli_Rocks480/I_Peridotite_13.png","response":null,"trial_type":"image-keyboard-response","trial_index":61,"plugin_version":"2.1.0","time_elapsed":167953,"subject_id":"88757","group":"Group2","full_date":"2025-12-04T16:33:48.685Z","date":"2025-12-04","time":"16:33:48"},{"rt":null,"stimulus":"<p style=\"font-size: 50px; margin: 0; text-align: center;\">+</p>","response":null,"trial_type":"html-keyboard-response","trial_index":62,"plugin_version":"2.1.0","time_elapsed":168964,"subject_id":"88757","group":"Group2","full_date":"2025-12-04T16:33:48.685Z","date":"2025-12-04","time":"16:33:48"},{"task":"memory_phase","broad_category":"M","image_png":"M_Slate_04.png","image_id":308,"category_name":"Slate","category":20,"distinct_rating":2.2,"distinct_type":"Bottom","rt":null,"stimulus":"Stimuli_Rocks480/M_Slate_04.png","response":null,"trial_type":"image-keyboard-response","trial_index":63,"plugin_version":"2.1.0","time_elapsed":171473,"subject_id":"88757","group":"Group2","full_date":"2025-12-04T16:33:48.685Z","date":"2025-12-04","time":"16:33:48"},{"rt":null,"stimulus":"<p style=\"font-size: 50px; margin: 0; text-align: center;\">+</p>","response":null,"trial_type":"html-keyboard-response","trial_index":64,"plugin_version":"2.1.0","time_elapsed":172478,"subject_id":"88757","group":"Group2","full_date":"2025-12-04T16:33:48.685Z","date":"2025-12-04","time":"16:33:48"},{"task":"memory_phase","broad_category":"I","image_png":"I_Pegmatite_11.png","image_id":107,"category_name":"Pegmatite","category":7,"distinct_rating":7.11,"distinct_type":"Top","rt":null,"stimulus":"Stimuli_Rocks480/I_Pegmatite_11.png","response":null,"trial_type":"image-keyboard-response","trial_index":65,"plugin_version":"2.1.0","time_elapsed":174992,"subject_id":"88757","group":"Group2","full_date":"2025-12-04T16:33:48.685Z","date":"2025-12-04","time":"16:33:48"},{"rt":null,"stimulus":"<p style=\"font-size: 50px; margin: 0; text-align: center;\">+</p>","response":null,"trial_type":"html-keyboard-response","trial_index":66,"plugin_version":"2.1.0","time_elapsed":176002,"subject_id":"88757","group":"Group2","full_date":"2025-12-04T16:33:48.685Z","date":"2025-12-04","time":"16:33:48"},{"task":"memory_phase","broad_category":"S","image_png":"S_Sandstone_11.png","image_id":459,"category_name":"Sandstone","category":29,"distinct_rating":1.82,"distinct_type":"Bottom","rt":null,"stimulus":"Stimuli_Rocks480/S_Sandstone_11.png","response":null,"trial_type":"image-keyboard-response","trial_index":67,"plugin_version":"2.1.0","time_elapsed":178510,"subject_id":"88757","group":"Group2","full_date":"2025-12-04T16:33:48.685Z","date":"2025-12-04","time":"16:33:48"},{"rt":null,"stimulus":"<p style=\"font-size: 50px; margin: 0; text-align: center;\">+</p>","response":null,"trial_type":"html-keyboard-response","trial_index":68,"plugin_version":"2.1.0","time_elapsed":179523,"subject_id":"88757","group":"Group2","full_date":"2025-12-04T16:33:48.685Z","date":"2025-12-04","time":"16:33:48"},{"task":"memory_phase","broad_category":"S","image_png":"S_Conglomerate_14.png","image_id":382,"category_name":"Conglomerate","category":24,"distinct_rating":6.86,"distinct_type":"Top","rt":null,"stimulus":"Stimuli_Rocks480/S_Conglomerate_14.png","response":null,"trial_type":"image-keyboard-response","trial_index":69,"plugin_version":"2.1.0","time_elapsed":182039,"subject_id":"88757","group":"Group2","full_date":"2025-12-04T16:33:48.685Z","date":"2025-12-04","time":"16:33:48"},{"rt":null,"stimulus":"<p style=\"font-size: 50px; margin: 0; text-align: center;\">+</p>","response":null,"trial_type":"html-keyboard-response","trial_index":70,"plugin_version":"2.1.0","time_elapsed":183047,"subject_id":"88757","group":"Group2","full_date":"2025-12-04T16:33:48.685Z","date":"2025-12-04","time":"16:33:48"},{"task":"memory_phase","broad_category":"M","image_png":"M_Slate_10.png","image_id":314,"category_name":"Slate","category":20,"distinct_rating":1.94,"distinct_type":"Bottom","rt":null,"stimulus":"Stimuli_Rocks480/M_Slate_10.png","response":null,"trial_type":"image-keyboard-response","trial_index":71,"plugin_version":"2.1.0","time_elapsed":185565,"subject_id":"88757","group":"Group2","full_date":"2025-12-04T16:33:48.685Z","date":"2025-12-04","time":"16:33:48"},{"rt":null,"stimulus":"<p style=\"font-size: 50px; margin: 0; text-align: center;\">+</p>","response":null,"trial_type":"html-keyboard-response","trial_index":72,"plugin_version":"2.1.0","time_elapsed":186576,"subject_id":"88757","group":"Group2","full_date":"2025-12-04T16:33:48.685Z","date":"2025-12-04","time":"16:33:48"},{"task":"memory_phase","broad_category":"I","image_png":"I_Basalt_13.png","image_id":29,"category_name":"Basalt","category":2,"distinct_rating":2.68,"distinct_type":"Bottom","rt":null,"stimulus":"Stimuli_Rocks480/I_Basalt_13.png","response":null,"trial_type":"image-keyboard-response","trial_index":73,"plugin_version":"2.1.0","time_elapsed":189081,"subject_id":"88757","group":"Group2","full_date":"2025-12-04T16:33:48.685Z","date":"2025-12-04","time":"16:33:48"},{"rt":null,"stimulus":"<p style=\"font-size: 50px; margin: 0; text-align: center;\">+</p>","response":null,"trial_type":"html-keyboard-response","trial_index":74,"plugin_version":"2.1.0","time_elapsed":190096,"subject_id":"88757","group":"Group2","full_date":"2025-12-04T16:33:48.685Z","date":"2025-12-04","time":"16:33:48"},{"task":"memory_phase","broad_category":"M","image_png":"M_Quartzite_12.png","image_id":284,"category_name":"Quartzite","category":18,"distinct_rating":1.92,"distinct_type":"Bottom","rt":null,"stimulus":"Stimuli_Rocks480/M_Quartzite_12.png","response":null,"trial_type":"image-keyboard-response","trial_index":75,"plugin_version":"2.1.0","time_elapsed":192611,"subject_id":"88757","group":"Group2","full_date":"2025-12-04T16:33:48.685Z","date":"2025-12-04","time":"16:33:48"},{"rt":null,"stimulus":"<p style=\"font-size: 50px; margin: 0; text-align: center;\">+</p>","response":null,"trial_type":"html-keyboard-response","trial_index":76,"plugin_version":"2.1.0","time_elapsed":193627,"subject_id":"88757","group":"Group2","full_date":"2025-12-04T16:33:48.685Z","date":"2025-12-04","time":"16:33:48"},{"task":"memory_phase","broad_category":"M","image_png":"M_Marble_14.png","image_id":238,"category_name":"Marble","category":15,"distinct_rating":3.31,"distinct_type":"Bottom","rt":null,"stimulus":"Stimuli_Rocks480/M_Marble_14.png","response":null,"trial_type":"image-keyboard-response","trial_index":77,"plugin_version":"2.1.0","time_elapsed":196144,"subject_id":"88757","group":"Group2","full_date":"2025-12-04T16:33:48.685Z","date":"2025-12-04","time":"16:33:48"},{"rt":null,"stimulus":"<p style=\"font-size: 50px; margin: 0; text-align: center;\">+</p>","response":null,"trial_type":"html-keyboard-response","trial_index":78,"plugin_version":"2.1.0","time_elapsed":197148,"subject_id":"88757","group":"Group2","full_date":"2025-12-04T16:33:48.685Z","date":"2025-12-04","time":"16:33:48"},{"task":"memory_phase","broad_category":"I","image_png":"I_Basalt_08.png","image_id":24,"category_name":"Basalt","category":2,"distinct_rating":2.31,"distinct_type":"Bottom","rt":null,"stimulus":"Stimuli_Rocks480/I_Basalt_08.png","response":null,"trial_type":"image-keyboard-response","trial_index":79,"plugin_version":"2.1.0","time_elapsed":199659,"subject_id":"88757","group":"Group2","full_date":"2025-12-04T16:33:48.685Z","date":"2025-12-04","time":"16:33:48"},{"rt":null,"stimulus":"<p style=\"font-size: 50px; margin: 0; text-align: center;\">+</p>","response":null,"trial_type":"html-keyboard-response","trial_index":80,"plugin_version":"2.1.0","time_elapsed":200665,"subject_id":"88757","group":"Group2","full_date":"2025-12-04T16:33:48.685Z","date":"2025-12-04","time":"16:33:48"},{"task":"memory_phase","broad_category":"S","image_png":"S_Shale_02.png","image_id":466,"category_name":"Shale","category":30,"distinct_rating":2.9,"distinct_type":"Bottom","rt":null,"stimulus":"Stimuli_Rocks480/S_Shale_02.png","response":null,"trial_type":"image-keyboard-response","trial_index":81,"plugin_version":"2.1.0","time_elapsed":203183,"subject_id":"88757","group":"Group2","full_date":"2025-12-04T16:33:48.685Z","date":"2025-12-04","time":"16:33:48"},{"rt":null,"stimulus":"<p style=\"font-size: 50px; margin: 0; text-align: center;\">+</p>","response":null,"trial_type":"html-keyboard-response","trial_index":82,"plugin_version":"2.1.0","time_elapsed":204197,"subject_id":"88757","group":"Group2","full_date":"2025-12-04T16:33:48.685Z","date":"2025-12-04","time":"16:33:48"},{"task":"memory_phase","broad_category":"I","image_png":"I_Gabbro_02.png","image_id":50,"category_name":"Gabbro","category":4,"distinct_rating":2.73,"distinct_type":"Bottom","rt":null,"stimulus":"Stimuli_Rocks480/I_Gabbro_02.png","response":null,"trial_type":"image-keyboard-response","trial_index":83,"plugin_version":"2.1.0","time_elapsed":206713,"subject_id":"88757","group":"Group2","full_date":"2025-12-04T16:33:48.685Z","date":"2025-12-04","time":"16:33:48"},{"rt":null,"stimulus":"<p style=\"font-size: 50px; margin: 0; text-align: center;\">+</p>","response":null,"trial_type":"html-keyboard-response","trial_index":84,"plugin_version":"2.1.0","time_elapsed":207728,"subject_id":"88757","group":"Group2","full_date":"2025-12-04T16:33:48.685Z","date":"2025-12-04","time":"16:33:48"},{"task":"memory_phase","broad_category":"M","image_png":"M_Slate_14.png","image_id":318,"category_name":"Slate","category":20,"distinct_rating":2.58,"distinct_type":"Bottom","rt":null,"stimulus":"Stimuli_Rocks480/M_Slate_14.png","response":null,"trial_type":"image-keyboard-response","trial_index":85,"plugin_version":"2.1.0","time_elapsed":210244,"subject_id":"88757","group":"Group2","full_date":"2025-12-04T16:33:48.685Z","date":"2025-12-04","time":"16:33:48"},{"rt":null,"stimulus":"<p style=\"font-size: 50px; margin: 0; text-align: center;\">+</p>","response":null,"trial_type":"html-keyboard-response","trial_index":86,"plugin_version":"2.1.0","time_elapsed":211246,"subject_id":"88757","group":"Group2","full_date":"2025-12-04T16:33:48.685Z","date":"2025-12-04","time":"16:33:48"},{"task":"memory_phase","broad_category":"I","image_png":"I_Diorite_15.png","image_id":47,"category_name":"Diorite","category":3,"distinct_rating":3.05,"distinct_type":"Bottom","rt":null,"stimulus":"Stimuli_Rocks480/I_Diorite_15.png","response":null,"trial_type":"image-keyboard-response","trial_index":87,"plugin_version":"2.1.0","time_elapsed":213760,"subject_id":"88757","group":"Group2","full_date":"2025-12-04T16:33:48.685Z","date":"2025-12-04","time":"16:33:48"},{"rt":null,"stimulus":"<p style=\"font-size: 50px; margin: 0; text-align: center;\">+</p>","response":null,"trial_type":"html-keyboard-response","trial_index":88,"plugin_version":"2.1.0","time_elapsed":214765,"subject_id":"88757","group":"Group2","full_date":"2025-12-04T16:33:48.685Z","date":"2025-12-04","time":"16:33:48"},{"task":"memory_phase","broad_category":"I","image_png":"I_Gabbro_14.png","image_id":62,"category_name":"Gabbro","category":4,"distinct_rating":2.95,"distinct_type":"Bottom","rt":null,"stimulus":"Stimuli_Rocks480/I_Gabbro_14.png","response":null,"trial_type":"image-keyboard-response","trial_index":89,"plugin_version":"2.1.0","time_elapsed":217277,"subject_id":"88757","group":"Group2","full_date":"2025-12-04T16:33:48.685Z","date":"2025-12-04","time":"16:33:48"},{"rt":null,"stimulus":"<p style=\"font-size: 50px; margin: 0; text-align: center;\">+</p>","response":null,"trial_type":"html-keyboard-response","trial_index":90,"plugin_version":"2.1.0","time_elapsed":218280,"subject_id":"88757","group":"Group2","full_date":"2025-12-04T16:33:48.685Z","date":"2025-12-04","time":"16:33:48"},{"task":"memory_phase","broad_category":"M","image_png":"M_Quartzite_15.png","image_id":287,"category_name":"Quartzite","category":18,"distinct_rating":2.19,"distinct_type":"Bottom","rt":null,"stimulus":"Stimuli_Rocks480/M_Quartzite_15.png","response":null,"trial_type":"image-keyboard-response","trial_index":91,"plugin_version":"2.1.0","time_elapsed":220786,"subject_id":"88757","group":"Group2","full_date":"2025-12-04T16:33:48.685Z","date":"2025-12-04","time":"16:33:48"},{"rt":null,"stimulus":"<p style=\"font-size: 50px; margin: 0; text-align: center;\">+</p>","response":null,"trial_type":"html-keyboard-response","trial_index":92,"plugin_version":"2.1.0","time_elapsed":221797,"subject_id":"88757","group":"Group2","full_date":"2025-12-04T16:33:48.685Z","date":"2025-12-04","time":"16:33:48"},{"task":"memory_phase","broad_category":"I","image_png":"I_Rhyolite_05.png","image_id":149,"category_name":"Rhyolite","category":10,"distinct_rating":3.02,"distinct_type":"Bottom","rt":null,"stimulus":"Stimuli_Rocks480/I_Rhyolite_05.png","response":null,"trial_type":"image-keyboard-response","trial_index":93,"plugin_version":"2.1.0","time_elapsed":224312,"subject_id":"88757","group":"Group2","full_date":"2025-12-04T16:33:48.685Z","date":"2025-12-04","time":"16:33:48"},{"rt":null,"stimulus":"<p style=\"font-size: 50px; margin: 0; text-align: center;\">+</p>","response":null,"trial_type":"html-keyboard-response","trial_index":94,"plugin_version":"2.1.0","time_elapsed":225314,"subject_id":"88757","group":"Group2","full_date":"2025-12-04T16:33:48.685Z","date":"2025-12-04","time":"16:33:48"},{"task":"memory_phase","broad_category":"S","image_png":"S_Shale_03.png","image_id":467,"category_name":"Shale","category":30,"distinct_rating":1.95,"distinct_type":"Bottom","rt":null,"stimulus":"Stimuli_Rocks480/S_Shale_03.png","response":null,"trial_type":"image-keyboard-response","trial_index":95,"plugin_version":"2.1.0","time_elapsed":227827,"subject_id":"88757","group":"Group2","full_date":"2025-12-04T16:33:48.685Z","date":"2025-12-04","time":"16:33:48"},{"rt":null,"stimulus":"<p style=\"font-size: 50px; margin: 0; text-align: center;\">+</p>","response":null,"trial_type":"html-keyboard-response","trial_index":96,"plugin_version":"2.1.0","time_elapsed":228830,"subject_id":"88757","group":"Group2","full_date":"2025-12-04T16:33:48.685Z","date":"2025-12-04","time":"16:33:48"},{"task":"memory_phase","broad_category":"I","image_png":"I_Rhyolite_08.png","image_id":152,"category_name":"Rhyolite","category":10,"distinct_rating":1.38,"distinct_type":"Bottom","rt":null,"stimulus":"Stimuli_Rocks480/I_Rhyolite_08.png","response":null,"trial_type":"image-keyboard-response","trial_index":97,"plugin_version":"2.1.0","time_elapsed":231343,"subject_id":"88757","group":"Group2","full_date":"2025-12-04T16:33:48.685Z","date":"2025-12-04","time":"16:33:48"},{"rt":null,"stimulus":"<p style=\"font-size: 50px; margin: 0; text-align: center;\">+</p>","response":null,"trial_type":"html-keyboard-response","trial_index":98,"plugin_version":"2.1.0","time_elapsed":232345,"subject_id":"88757","group":"Group2","full_date":"2025-12-04T16:33:48.685Z","date":"2025-12-04","time":"16:33:48"},{"task":"memory_phase","broad_category":"I","image_png":"I_Andesite_03.png","image_id":3,"category_name":"Andesite","category":1,"distinct_rating":3.17,"distinct_type":"Bottom","rt":null,"stimulus":"Stimuli_Rocks480/I_Andesite_03.png","response":null,"trial_type":"image-keyboard-response","trial_index":99,"plugin_version":"2.1.0","time_elapsed":234849,"subject_id":"88757","group":"Group2","full_date":"2025-12-04T16:33:48.685Z","date":"2025-12-04","time":"16:33:48"},{"rt":null,"stimulus":"<p style=\"font-size: 50px; margin: 0; text-align: center;\">+</p>","response":null,"trial_type":"html-keyboard-response","trial_index":100,"plugin_version":"2.1.0","time_elapsed":235851,"subject_id":"88757","group":"Group2","full_date":"2025-12-04T16:33:48.685Z","date":"2025-12-04","time":"16:33:48"},{"task":"memory_phase","broad_category":"M","image_png":"M_Phyllite_13.png","image_id":269,"category_name":"Phyllite","category":17,"distinct_rating":2.8,"distinct_type":"Bottom","rt":null,"stimulus":"Stimuli_Rocks480/M_Phyllite_13.png","response":null,"trial_type":"image-keyboard-response","trial_index":101,"plugin_version":"2.1.0","time_elapsed":238366,"subject_id":"88757","group":"Group2","full_date":"2025-12-04T16:33:48.685Z","date":"2025-12-04","time":"16:33:48"},{"rt":null,"stimulus":"<p style=\"font-size: 50px; margin: 0; text-align: center;\">+</p>","response":null,"trial_type":"html-keyboard-response","trial_index":102,"plugin_version":"2.1.0","time_elapsed":239374,"subject_id":"88757","group":"Group2","full_date":"2025-12-04T16:33:48.685Z","date":"2025-12-04","time":"16:33:48"},{"task":"memory_phase","broad_category":"S","image_png":"S_Rock Salt_13.png","image_id":445,"category_name":"Rock Salt","category":28,"distinct_rating":7.58,"distinct_type":"Top","rt":null,"stimulus":"Stimuli_Rocks480/S_Rock Salt_13.png","response":null,"trial_type":"image-keyboard-response","trial_index":103,"plugin_version":"2.1.0","time_elapsed":241881,"subject_id":"88757","group":"Group2","full_date":"2025-12-04T16:33:48.685Z","date":"2025-12-04","time":"16:33:48"},{"rt":null,"stimulus":"<p style=\"font-size: 50px; margin: 0; text-align: center;\">+</p>","response":null,"trial_type":"html-keyboard-response","trial_index":104,"plugin_version":"2.1.0","time_elapsed":242890,"subject_id":"88757","group":"Group2","full_date":"2025-12-04T16:33:48.685Z","date":"2025-12-04","time":"16:33:48"},{"task":"memory_phase","broad_category":"M","image_png":"M_Marble_03.png","image_id":227,"category_name":"Marble","category":15,"distinct_rating":2.67,"distinct_type":"Bottom","rt":null,"stimulus":"Stimuli_Rocks480/M_Marble_03.png","response":null,"trial_type":"image-keyboard-response","trial_index":105,"plugin_version":"2.1.0","time_elapsed":245397,"subject_id":"88757","group":"Group2","full_date":"2025-12-04T16:33:48.685Z","date":"2025-12-04","time":"16:33:48"},{"rt":5992,"stimulus":"<p style=\"max-width: 760px; margin: auto; font-size: 35px; line-height: 1.5;\">You have completed 1 study phase. Now, we'll show you all the images again 2 more times.<br><br>Press SPACE to continue</p>","response":" ","trial_type":"html-keyboard-response","trial_index":106,"plugin_version":"2.1.0","time_elapsed":251391,"subject_id":"88757","group":"Group2","full_date":"2025-12-04T16:33:48.685Z","date":"2025-12-04","time":"16:33:48"},{"rt":null,"stimulus":"<p style=\"font-size: 50px; margin: 0; text-align: center;\">+</p>","response":null,"trial_type":"html-keyboard-response","trial_index":107,"plugin_version":"2.1.0","time_elapsed":252394,"subject_id":"88757","group":"Group2","full_date":"2025-12-04T16:33:48.685Z","date":"2025-12-04","time":"16:33:48"},{"task":"memory_phase","broad_category":"S","image_png":"S_Rock Salt_13.png","image_id":445,"category_name":"Rock Salt","category":28,"distinct_rating":7.58,"distinct_type":"Top","rt":null,"stimulus":"Stimuli_Rocks480/S_Rock Salt_13.png","response":null,"trial_type":"image-keyboard-response","trial_index":108,"plugin_version":"2.1.0","time_elapsed":254908,"subject_id":"88757","group":"Group2","full_date":"2025-12-04T16:33:48.685Z","date":"2025-12-04","time":"16:33:48"},{"rt":null,"stimulus":"<p style=\"font-size: 50px; margin: 0; text-align: center;\">+</p>","response":null,"trial_type":"html-keyboard-response","trial_index":109,"plugin_version":"2.1.0","time_elapsed":255917,"subject_id":"88757","group":"Group2","full_date":"2025-12-04T16:33:48.685Z","date":"2025-12-04","time":"16:33:48"},{"task":"memory_phase","broad_category":"M","image_png":"M_Phyllite_02.png","image_id":258,"category_name":"Phyllite","category":17,"distinct_rating":2.89,"distinct_type":"Bottom","rt":null,"stimulus":"Stimuli_Rocks480/M_Phyllite_02.png","response":null,"trial_type":"image-keyboard-response","trial_index":110,"plugin_version":"2.1.0","time_elapsed":258434,"subject_id":"88757","group":"Group2","full_date":"2025-12-04T16:33:48.685Z","date":"2025-12-04","time":"16:33:48"},{"rt":null,"stimulus":"<p style=\"font-size: 50px; margin: 0; text-align: center;\">+</p>","response":null,"trial_type":"html-keyboard-response","trial_index":111,"plugin_version":"2.1.0","time_elapsed":259436,"subject_id":"88757","group":"Group2","full_date":"2025-12-04T16:33:48.685Z","date":"2025-12-04","time":"16:33:48"},{"task":"memory_phase","broad_category":"M","image_png":"M_Marble_03.png","image_id":227,"category_name":"Marble","category":15,"distinct_rating":2.67,"distinct_type":"Bottom","rt":null,"stimulus":"Stimuli_Rocks480/M_Marble_03.png","response":null,"trial_type":"image-keyboard-response","trial_index":112,"plugin_version":"2.1.0","time_elapsed":261952,"subject_id":"88757","group":"Group2","full_date":"2025-12-04T16:33:48.685Z","date":"2025-12-04","time":"16:33:48"},{"rt":null,"stimulus":"<p style=\"font-size: 50px; margin: 0; text-align: center;\">+</p>","response":null,"trial_type":"html-keyboard-response","trial_index":113,"plugin_version":"2.1.0","time_elapsed":262967,"subject_id":"88757","group":"Group2","full_date":"2025-12-04T16:33:48.685Z","date":"2025-12-04","time":"16:33:48"},{"task":"memory_phase","broad_category":"S","image_png":"S_Sandstone_04.png","image_id":452,"category_name":"Sandstone","category":29,"distinct_rating":1.8,"distinct_type":"Bottom","rt":null,"stimulus":"Stimuli_Rocks480/S_Sandstone_04.png","response":null,"trial_type":"image-keyboard-response","trial_index":114,"plugin_version":"2.1.0","time_elapsed":265478,"subject_id":"88757","group":"Group2","full_date":"2025-12-04T16:33:48.685Z","date":"2025-12-04","time":"16:33:48"},{"rt":null,"stimulus":"<p style=\"font-size: 50px; margin: 0; text-align: center;\">+</p>","response":null,"trial_type":"html-keyboard-response","trial_index":115,"plugin_version":"2.1.0","time_elapsed":266489,"subject_id":"88757","group":"Group2","full_date":"2025-12-04T16:33:48.685Z","date":"2025-12-04","time":"16:33:48"},{"task":"memory_phase","broad_category":"M","image_png":"M_Gneiss_14.png","image_id":206,"category_name":"Gneiss","category":13,"distinct_rating":3.41,"distinct_type":"Bottom","rt":null,"stimulus":"Stimuli_Rocks480/M_Gneiss_14.png","response":null,"trial_type":"image-keyboard-response","trial_index":116,"plugin_version":"2.1.0","time_elapsed":269004,"subject_id":"88757","group":"Group2","full_date":"2025-12-04T16:33:48.685Z","date":"2025-12-04","time":"16:33:48"},{"rt":null,"stimulus":"<p style=\"font-size: 50px; margin: 0; text-align: center;\">+</p>","response":null,"trial_type":"html-keyboard-response","trial_index":117,"plugin_version":"2.1.0","time_elapsed":270011,"subject_id":"88757","group":"Group2","full_date":"2025-12-04T16:33:48.685Z","date":"2025-12-04","time":"16:33:48"},{"task":"memory_phase","broad_category":"I","image_png":"I_Pumice_01.png","image_id":129,"category_name":"Pumice","category":9,"distinct_rating":3.25,"distinct_type":"Bottom","rt":null,"stimulus":"Stimuli_Rocks480/I_Pumice_01.png","response":null,"trial_type":"image-keyboard-response","trial_index":118,"plugin_version":"2.1.0","time_elapsed":272529,"subject_id":"88757","group":"Group2","full_date":"2025-12-04T16:33:48.685Z","date":"2025-12-04","time":"16:33:48"},{"rt":null,"stimulus":"<p style=\"font-size: 50px; margin: 0; text-align: center;\">+</p>","response":null,"trial_type":"html-keyboard-response","trial_index":119,"plugin_version":"2.1.0","time_elapsed":273548,"subject_id":"88757","group":"Group2","full_date":"2025-12-04T16:33:48.685Z","date":"2025-12-04","time":"16:33:48"},{"task":"memory_phase","broad_category":"I","image_png":"I_Pegmatite_11.png","image_id":107,"category_name":"Pegmatite","category":7,"distinct_rating":7.11,"distinct_type":"Top","rt":null,"stimulus":"Stimuli_Rocks480/I_Pegmatite_11.png","response":null,"trial_type":"image-keyboard-response","trial_index":120,"plugin_version":"2.1.0","time_elapsed":276067,"subject_id":"88757","group":"Group2","full_date":"2025-12-04T16:33:48.685Z","date":"2025-12-04","time":"16:33:48"},{"rt":null,"stimulus":"<p style=\"font-size: 50px; margin: 0; text-align: center;\">+</p>","response":null,"trial_type":"html-keyboard-response","trial_index":121,"plugin_version":"2.1.0","time_elapsed":277074,"subject_id":"88757","group":"Group2","full_date":"2025-12-04T16:33:48.685Z","date":"2025-12-04","time":"16:33:48"},{"task":"memory_phase","broad_category":"M","image_png":"M_Gneiss_15.png","image_id":207,"category_name":"Gneiss","category":13,"distinct_rating":3.11,"distinct_type":"Bottom","rt":null,"stimulus":"Stimuli_Rocks480/M_Gneiss_15.png","response":null,"trial_type":"image-keyboard-response","trial_index":122,"plugin_version":"2.1.0","time_elapsed":279583,"subject_id":"88757","group":"Group2","full_date":"2025-12-04T16:33:48.685Z","date":"2025-12-04","time":"16:33:48"},{"rt":null,"stimulus":"<p style=\"font-size: 50px; margin: 0; text-align: center;\">+</p>","response":null,"trial_type":"html-keyboard-response","trial_index":123,"plugin_version":"2.1.0","time_elapsed":280590,"subject_id":"88757","group":"Group2","full_date":"2025-12-04T16:33:48.685Z","date":"2025-12-04","time":"16:33:48"},{"task":"memory_phase","broad_category":"I","image_png":"I_Rhyolite_05.png","image_id":149,"category_name":"Rhyolite","category":10,"distinct_rating":3.02,"distinct_type":"Bottom","rt":null,"stimulus":"Stimuli_Rocks480/I_Rhyolite_05.png","response":null,"trial_type":"image-keyboard-response","trial_index":124,"plugin_version":"2.1.0","time_elapsed":283097,"subject_id":"88757","group":"Group2","full_date":"2025-12-04T16:33:48.685Z","date":"2025-12-04","time":"16:33:48"},{"rt":null,"stimulus":"<p style=\"font-size: 50px; margin: 0; text-align: center;\">+</p>","response":null,"trial_type":"html-keyboard-response","trial_index":125,"plugin_version":"2.1.0","time_elapsed":284098,"subject_id":"88757","group":"Group2","full_date":"2025-12-04T16:33:48.685Z","date":"2025-12-04","time":"16:33:48"},{"task":"memory_phase","broad_category":"I","image_png":"I_Diorite_10.png","image_id":42,"category_name":"Diorite","category":3,"distinct_rating":2.84,"distinct_type":"Bottom","rt":null,"stimulus":"Stimuli_Rocks480/I_Diorite_10.png","response":null,"trial_type":"image-keyboard-response","trial_index":126,"plugin_version":"2.1.0","time_elapsed":286614,"subject_id":"88757","group":"Group2","full_date":"2025-12-04T16:33:48.685Z","date":"2025-12-04","time":"16:33:48"},{"rt":null,"stimulus":"<p style=\"font-size: 50px; margin: 0; text-align: center;\">+</p>","response":null,"trial_type":"html-keyboard-response","trial_index":127,"plugin_version":"2.1.0","time_elapsed":287616,"subject_id":"88757","group":"Group2","full_date":"2025-12-04T16:33:48.685Z","date":"2025-12-04","time":"16:33:48"},{"task":"memory_phase","broad_category":"I","image_png":"I_Basalt_10.png","image_id":26,"category_name":"Basalt","category":2,"distinct_rating":2.76,"distinct_type":"Bottom","rt":null,"stimulus":"Stimuli_Rocks480/I_Basalt_10.png","response":null,"trial_type":"image-keyboard-response","trial_index":128,"plugin_version":"2.1.0","time_elapsed":290134,"subject_id":"88757","group":"Group2","full_date":"2025-12-04T16:33:48.685Z","date":"2025-12-04","time":"16:33:48"},{"rt":null,"stimulus":"<p style=\"font-size: 50px; margin: 0; text-align: center;\">+</p>","response":null,"trial_type":"html-keyboard-response","trial_index":129,"plugin_version":"2.1.0","time_elapsed":291146,"subject_id":"88757","group":"Group2","full_date":"2025-12-04T16:33:48.685Z","date":"2025-12-04","time":"16:33:48"},{"task":"memory_phase","broad_category":"I","image_png":"I_Peridotite_13.png","image_id":125,"category_name":"Peridotite","category":8,"distinct_rating":7.28,"distinct_type":"Top","rt":null,"stimulus":"Stimuli_Rocks480/I_Peridotite_13.png","response":null,"trial_type":"image-keyboard-response","trial_index":130,"plugin_version":"2.1.0","time_elapsed":293657,"subject_id":"88757","group":"Group2","full_date":"2025-12-04T16:33:48.685Z","date":"2025-12-04","time":"16:33:48"},{"rt":null,"stimulus":"<p style=\"font-size: 50px; margin: 0; text-align: center;\">+</p>","response":null,"trial_type":"html-keyboard-response","trial_index":131,"plugin_version":"2.1.0","time_elapsed":294665,"subject_id":"88757","group":"Group2","full_date":"2025-12-04T16:33:48.685Z","date":"2025-12-04","time":"16:33:48"},{"task":"memory_phase","broad_category":"M","image_png":"M_Marble_02.png","image_id":226,"category_name":"Marble","category":15,"distinct_rating":3.2,"distinct_type":"Bottom","rt":null,"stimulus":"Stimuli_Rocks480/M_Marble_02.png","response":null,"trial_type":"image-keyboard-response","trial_index":132,"plugin_version":"2.1.0","time_elapsed":297184,"subject_id":"88757","group":"Group2","full_date":"2025-12-04T16:33:48.685Z","date":"2025-12-04","time":"16:33:48"},{"rt":null,"stimulus":"<p style=\"font-size: 50px; margin: 0; text-align: center;\">+</p>","response":null,"trial_type":"html-keyboard-response","trial_index":133,"plugin_version":"2.1.0","time_elapsed":298202,"subject_id":"88757","group":"Group2","full_date":"2025-12-04T16:33:48.685Z","date":"2025-12-04","time":"16:33:48"},{"task":"memory_phase","broad_category":"S","image_png":"S_Conglomerate_14.png","image_id":382,"category_name":"Conglomerate","category":24,"distinct_rating":6.86,"distinct_type":"Top","rt":null,"stimulus":"Stimuli_Rocks480/S_Conglomerate_14.png","response":null,"trial_type":"image-keyboard-response","trial_index":134,"plugin_version":"2.1.0","time_elapsed":300726,"subject_id":"88757","group":"Group2","full_date":"2025-12-04T16:33:48.685Z","date":"2025-12-04","time":"16:33:48"},{"rt":null,"stimulus":"<p style=\"font-size: 50px; margin: 0; text-align: center;\">+</p>","response":null,"trial_type":"html-keyboard-response","trial_index":135,"plugin_version":"2.1.0","time_elapsed":301743,"subject_id":"88757","group":"Group2","full_date":"2025-12-04T16:33:48.685Z","date":"2025-12-04","time":"16:33:48"},{"task":"memory_phase","broad_category":"S","image_png":"S_Shale_07.png","image_id":471,"category_name":"Shale","category":30,"distinct_rating":2.73,"distinct_type":"Bottom","rt":null,"stimulus":"Stimuli_Rocks480/S_Shale_07.png","response":null,"trial_type":"image-keyboard-response","trial_index":136,"plugin_version":"2.1.0","time_elapsed":304260,"subject_id":"88757","group":"Group2","full_date":"2025-12-04T16:33:48.685Z","date":"2025-12-04","time":"16:33:48"},{"rt":null,"stimulus":"<p style=\"font-size: 50px; margin: 0; text-align: center;\">+</p>","response":null,"trial_type":"html-keyboard-response","trial_index":137,"plugin_version":"2.1.0","time_elapsed":305265,"subject_id":"88757","group":"Group2","full_date":"2025-12-04T16:33:48.685Z","date":"2025-12-04","time":"16:33:48"},{"task":"memory_phase","broad_category":"S","image_png":"S_Shale_02.png","image_id":466,"category_name":"Shale","category":30,"distinct_rating":2.9,"distinct_type":"Bottom","rt":null,"stimulus":"Stimuli_Rocks480/S_Shale_02.png","response":null,"trial_type":"image-keyboard-response","trial_index":138,"plugin_version":"2.1.0","time_elapsed":307767,"subject_id":"88757","group":"Group2","full_date":"2025-12-04T16:33:48.685Z","date":"2025-12-04","time":"16:33:48"},{"rt":null,"stimulus":"<p style=\"font-size: 50px; margin: 0; text-align: center;\">+</p>","response":null,"trial_type":"html-keyboard-response","trial_index":139,"plugin_version":"2.1.0","time_elapsed":308778,"subject_id":"88757","group":"Group2","full_date":"2025-12-04T16:33:48.685Z","date":"2025-12-04","time":"16:33:48"},{"task":"memory_phase","broad_category":"S","image_png":"S_Shale_03.png","image_id":467,"category_name":"Shale","category":30,"distinct_rating":1.95,"distinct_type":"Bottom","rt":null,"stimulus":"Stimuli_Rocks480/S_Shale_03.png","response":null,"trial_type":"image-keyboard-response","trial_index":140,"plugin_version":"2.1.0","time_elapsed":311295,"subject_id":"88757","group":"Group2","full_date":"2025-12-04T16:33:48.685Z","date":"2025-12-04","time":"16:33:48"},{"rt":null,"stimulus":"<p style=\"font-size: 50px; margin: 0; text-align: center;\">+</p>","response":null,"trial_type":"html-keyboard-response","trial_index":141,"plugin_version":"2.1.0","time_elapsed":312310,"subject_id":"88757","group":"Group2","full_date":"2025-12-04T16:33:48.685Z","date":"2025-12-04","time":"16:33:48"},{"task":"memory_phase","broad_category":"I","image_png":"I_Andesite_04.png","image_id":4,"category_name":"Andesite","category":1,"distinct_rating":3.18,"distinct_type":"Bottom","rt":null,"stimulus":"Stimuli_Rocks480/I_Andesite_04.png","response":null,"trial_type":"image-keyboard-response","trial_index":142,"plugin_version":"2.1.0","time_elapsed":314828,"subject_id":"88757","group":"Group2","full_date":"2025-12-04T16:33:48.685Z","date":"2025-12-04","time":"16:33:48"},{"rt":null,"stimulus":"<p style=\"font-size: 50px; margin: 0; text-align: center;\">+</p>","response":null,"trial_type":"html-keyboard-response","trial_index":143,"plugin_version":"2.1.0","time_elapsed":315841,"subject_id":"88757","group":"Group2","full_date":"2025-12-04T16:33:48.685Z","date":"2025-12-04","time":"16:33:48"},{"task":"memory_phase","broad_category":"I","image_png":"I_Basalt_08.png","image_id":24,"category_name":"Basalt","category":2,"distinct_rating":2.31,"distinct_type":"Bottom","rt":null,"stimulus":"Stimuli_Rocks480/I_Basalt_08.png","response":null,"trial_type":"image-keyboard-response","trial_index":144,"plugin_version":"2.1.0","time_elapsed":318349,"subject_id":"88757","group":"Group2","full_date":"2025-12-04T16:33:48.685Z","date":"2025-12-04","time":"16:33:48"},{"rt":null,"stimulus":"<p style=\"font-size: 50px; margin: 0; text-align: center;\">+</p>","response":null,"trial_type":"html-keyboard-response","trial_index":145,"plugin_version":"2.1.0","time_elapsed":319361,"subject_id":"88757","group":"Group2","full_date":"2025-12-04T16:33:48.685Z","date":"2025-12-04","time":"16:33:48"},{"task":"memory_phase","broad_category":"I","image_png":"I_Andesite_09.png","image_id":9,"category_name":"Andesite","category":1,"distinct_rating":2.49,"distinct_type":"Bottom","rt":null,"stimulus":"Stimuli_Rocks480/I_Andesite_09.png","response":null,"trial_type":"image-keyboard-response","trial_index":146,"plugin_version":"2.1.0","time_elapsed":321876,"subject_id":"88757","group":"Group2","full_date":"2025-12-04T16:33:48.685Z","date":"2025-12-04","time":"16:33:48"},{"rt":null,"stimulus":"<p style=\"font-size: 50px; margin: 0; text-align: center;\">+</p>","response":null,"trial_type":"html-keyboard-response","trial_index":147,"plugin_version":"2.1.0","time_elapsed":322891,"subject_id":"88757","group":"Group2","full_date":"2025-12-04T16:33:48.685Z","date":"2025-12-04","time":"16:33:48"},{"task":"memory_phase","broad_category":"I","image_png":"I_Basalt_13.png","image_id":29,"category_name":"Basalt","category":2,"distinct_rating":2.68,"distinct_type":"Bottom","rt":null,"stimulus":"Stimuli_Rocks480/I_Basalt_13.png","response":null,"trial_type":"image-keyboard-response","trial_index":148,"plugin_version":"2.1.0","time_elapsed":325410,"subject_id":"88757","group":"Group2","full_date":"2025-12-04T16:33:48.685Z","date":"2025-12-04","time":"16:33:48"},{"rt":null,"stimulus":"<p style=\"font-size: 50px; margin: 0; text-align: center;\">+</p>","response":null,"trial_type":"html-keyboard-response","trial_index":149,"plugin_version":"2.1.0","time_elapsed":326421,"subject_id":"88757","group":"Group2","full_date":"2025-12-04T16:33:48.685Z","date":"2025-12-04","time":"16:33:48"},{"task":"memory_phase","broad_category":"I","image_png":"I_Rhyolite_08.png","image_id":152,"category_name":"Rhyolite","category":10,"distinct_rating":1.38,"distinct_type":"Bottom","rt":null,"stimulus":"Stimuli_Rocks480/I_Rhyolite_08.png","response":null,"trial_type":"image-keyboard-response","trial_index":150,"plugin_version":"2.1.0","time_elapsed":328928,"subject_id":"88757","group":"Group2","full_date":"2025-12-04T16:33:48.685Z","date":"2025-12-04","time":"16:33:48"},{"rt":null,"stimulus":"<p style=\"font-size: 50px; margin: 0; text-align: center;\">+</p>","response":null,"trial_type":"html-keyboard-response","trial_index":151,"plugin_version":"2.1.0","time_elapsed":329941,"subject_id":"88757","group":"Group2","full_date":"2025-12-04T16:33:48.685Z","date":"2025-12-04","time":"16:33:48"},{"task":"memory_phase","broad_category":"M","image_png":"M_Slate_04.png","image_id":308,"category_name":"Slate","category":20,"distinct_rating":2.2,"distinct_type":"Bottom","rt":null,"stimulus":"Stimuli_Rocks480/M_Slate_04.png","response":null,"trial_type":"image-keyboard-response","trial_index":152,"plugin_version":"2.1.0","time_elapsed":332459,"subject_id":"88757","group":"Group2","full_date":"2025-12-04T16:33:48.685Z","date":"2025-12-04","time":"16:33:48"},{"rt":null,"stimulus":"<p style=\"font-size: 50px; margin: 0; text-align: center;\">+</p>","response":null,"trial_type":"html-keyboard-response","trial_index":153,"plugin_version":"2.1.0","time_elapsed":333463,"subject_id":"88757","group":"Group2","full_date":"2025-12-04T16:33:48.685Z","date":"2025-12-04","time":"16:33:48"},{"task":"memory_phase","broad_category":"S","image_png":"S_Sandstone_11.png","image_id":459,"category_name":"Sandstone","category":29,"distinct_rating":1.82,"distinct_type":"Bottom","rt":null,"stimulus":"Stimuli_Rocks480/S_Sandstone_11.png","response":null,"trial_type":"image-keyboard-response","trial_index":154,"plugin_version":"2.1.0","time_elapsed":335982,"subject_id":"88757","group":"Group2","full_date":"2025-12-04T16:33:48.685Z","date":"2025-12-04","time":"16:33:48"},{"rt":null,"stimulus":"<p style=\"font-size: 50px; margin: 0; text-align: center;\">+</p>","response":null,"trial_type":"html-keyboard-response","trial_index":155,"plugin_version":"2.1.0","time_elapsed":336997,"subject_id":"88757","group":"Group2","full_date":"2025-12-04T16:33:48.685Z","date":"2025-12-04","time":"16:33:48"},{"task":"memory_phase","broad_category":"S","image_png":"S_Rock Salt_15.png","image_id":447,"category_name":"Rock Salt","category":28,"distinct_rating":7.79,"distinct_type":"Top","rt":null,"stimulus":"Stimuli_Rocks480/S_Rock Salt_15.png","response":null,"trial_type":"image-keyboard-response","trial_index":156,"plugin_version":"2.1.0","time_elapsed":339514,"subject_id":"88757","group":"Group2","full_date":"2025-12-04T16:33:48.685Z","date":"2025-12-04","time":"16:33:48"},{"rt":14892,"stimulus":"<p style=\"max-width: 760px; margin: auto; font-size: 35px; line-height: 1.5;\">Press SPACE to continue study phase</p>","response":" ","trial_type":"html-keyboard-response","trial_index":157,"plugin_version":"2.1.0","time_elapsed":354408,"subject_id":"88757","group":"Group2","full_date":"2025-12-04T16:33:48.685Z","date":"2025-12-04","time":"16:33:48"},{"rt":null,"stimulus":"<p style=\"font-size: 50px; margin: 0; text-align: center;\">+</p>","response":null,"trial_type":"html-keyboard-response","trial_index":158,"plugin_version":"2.1.0","time_elapsed":355411,"subject_id":"88757","group":"Group2","full_date":"2025-12-04T16:33:48.685Z","date":"2025-12-04","time":"16:33:48"},{"task":"memory_phase","broad_category":"S","image_png":"S_Sandstone_08.png","image_id":456,"category_name":"Sandstone","category":29,"distinct_rating":1.5,"distinct_type":"Bottom","rt":null,"stimulus":"Stimuli_Rocks480/S_Sandstone_08.png","response":null,"trial_type":"image-keyboard-response","trial_index":159,"plugin_version":"2.1.0","time_elapsed":357928,"subject_id":"88757","group":"Group2","full_date":"2025-12-04T16:33:48.685Z","date":"2025-12-04","time":"16:33:48"},{"rt":null,"stimulus":"<p style=\"font-size: 50px; margin: 0; text-align: center;\">+</p>","response":null,"trial_type":"html-keyboard-response","trial_index":160,"plugin_version":"2.1.0","time_elapsed":358934,"subject_id":"88757","group":"Group2","full_date":"2025-12-04T16:33:48.685Z","date":"2025-12-04","time":"16:33:48"},{"task":"memory_phase","broad_category":"S","image_png":"S_Dolomite_01.png","image_id":385,"category_name":"Dolomite","category":25,"distinct_rating":1.43,"distinct_type":"Bottom","rt":null,"stimulus":"Stimuli_Rocks480/S_Dolomite_01.png","response":null,"trial_type":"image-keyboard-response","trial_index":161,"plugin_version":"2.1.0","time_elapsed":361451,"subject_id":"88757","group":"Group2","full_date":"2025-12-04T16:33:48.685Z","date":"2025-12-04","time":"16:33:48"},{"rt":null,"stimulus":"<p style=\"font-size: 50px; margin: 0; text-align: center;\">+</p>","response":null,"trial_type":"html-keyboard-response","trial_index":162,"plugin_version":"2.1.0","time_elapsed":362459,"subject_id":"88757","group":"Group2","full_date":"2025-12-04T16:33:48.685Z","date":"2025-12-04","time":"16:33:48"},{"task":"memory_phase","broad_category":"I","image_png":"I_Andesite_03.png","image_id":3,"category_name":"Andesite","category":1,"distinct_rating":3.17,"distinct_type":"Bottom","rt":null,"stimulus":"Stimuli_Rocks480/I_Andesite_03.png","response":null,"trial_type":"image-keyboard-response","trial_index":163,"plugin_version":"2.1.0","time_elapsed":364977,"subject_id":"88757","group":"Group2","full_date":"2025-12-04T16:33:48.685Z","date":"2025-12-04","time":"16:33:48"},{"rt":null,"stimulus":"<p style=\"font-size: 50px; margin: 0; text-align: center;\">+</p>","response":null,"trial_type":"html-keyboard-response","trial_index":164,"plugin_version":"2.1.0","time_elapsed":365983,"subject_id":"88757","group":"Group2","full_date":"2025-12-04T16:33:48.685Z","date":"2025-12-04","time":"16:33:48"},{"task":"memory_phase","broad_category":"I","image_png":"I_Gabbro_14.png","image_id":62,"category_name":"Gabbro","category":4,"distinct_rating":2.95,"distinct_type":"Bottom","rt":null,"stimulus":"Stimuli_Rocks480/I_Gabbro_14.png","response":null,"trial_type":"image-keyboard-response","trial_index":165,"plugin_version":"2.1.0","time_elapsed":368495,"subject_id":"88757","group":"Group2","full_date":"2025-12-04T16:33:48.685Z","date":"2025-12-04","time":"16:33:48"},{"rt":null,"stimulus":"<p style=\"font-size: 50px; margin: 0; text-align: center;\">+</p>","response":null,"trial_type":"html-keyboard-response","trial_index":166,"plugin_version":"2.1.0","time_elapsed":369499,"subject_id":"88757","group":"Group2","full_date":"2025-12-04T16:33:48.685Z","date":"2025-12-04","time":"16:33:48"},{"task":"memory_phase","broad_category":"M","image_png":"M_Phyllite_13.png","image_id":269,"category_name":"Phyllite","category":17,"distinct_rating":2.8,"distinct_type":"Bottom","rt":null,"stimulus":"Stimuli_Rocks480/M_Phyllite_13.png","response":null,"trial_type":"image-keyboard-response","trial_index":167,"plugin_version":"2.1.0","time_elapsed":372004,"subject_id":"88757","group":"Group2","full_date":"2025-12-04T16:33:48.685Z","date":"2025-12-04","time":"16:33:48"},{"rt":null,"stimulus":"<p style=\"font-size: 50px; margin: 0; text-align: center;\">+</p>","response":null,"trial_type":"html-keyboard-response","trial_index":168,"plugin_version":"2.1.0","time_elapsed":373013,"subject_id":"88757","group":"Group2","full_date":"2025-12-04T16:33:48.685Z","date":"2025-12-04","time":"16:33:48"},{"task":"memory_phase","broad_category":"S","image_png":"S_Dolomite_07.png","image_id":391,"category_name":"Dolomite","category":25,"distinct_rating":1.73,"distinct_type":"Bottom","rt":null,"stimulus":"Stimuli_Rocks480/S_Dolomite_07.png","response":null,"trial_type":"image-keyboard-response","trial_index":169,"plugin_version":"2.1.0","time_elapsed":375530,"subject_id":"88757","group":"Group2","full_date":"2025-12-04T16:33:48.685Z","date":"2025-12-04","time":"16:33:48"},{"rt":null,"stimulus":"<p style=\"font-size: 50px; margin: 0; text-align: center;\">+</p>","response":null,"trial_type":"html-keyboard-response","trial_index":170,"plugin_version":"2.1.0","time_elapsed":376547,"subject_id":"88757","group":"Group2","full_date":"2025-12-04T16:33:48.685Z","date":"2025-12-04","time":"16:33:48"},{"task":"memory_phase","broad_category":"M","image_png":"M_Gneiss_10.png","image_id":202,"category_name":"Gneiss","category":13,"distinct_rating":3.09,"distinct_type":"Bottom","rt":null,"stimulus":"Stimuli_Rocks480/M_Gneiss_10.png","response":null,"trial_type":"image-keyboard-response","trial_index":171,"plugin_version":"2.1.0","time_elapsed":379059,"subject_id":"88757","group":"Group2","full_date":"2025-12-04T16:33:48.685Z","date":"2025-12-04","time":"16:33:48"},{"rt":null,"stimulus":"<p style=\"font-size: 50px; margin: 0; text-align: center;\">+</p>","response":null,"trial_type":"html-keyboard-response","trial_index":172,"plugin_version":"2.1.0","time_elapsed":380064,"subject_id":"88757","group":"Group2","full_date":"2025-12-04T16:33:48.685Z","date":"2025-12-04","time":"16:33:48"},{"task":"memory_phase","broad_category":"I","image_png":"I_Pegmatite_03.png","image_id":99,"category_name":"Pegmatite","category":7,"distinct_rating":7.24,"distinct_type":"Top","rt":null,"stimulus":"Stimuli_Rocks480/I_Pegmatite_03.png","response":null,"trial_type":"image-keyboard-response","trial_index":173,"plugin_version":"2.1.0","time_elapsed":382582,"subject_id":"88757","group":"Group2","full_date":"2025-12-04T16:33:48.685Z","date":"2025-12-04","time":"16:33:48"},{"rt":null,"stimulus":"<p style=\"font-size: 50px; margin: 0; text-align: center;\">+</p>","response":null,"trial_type":"html-keyboard-response","trial_index":174,"plugin_version":"2.1.0","time_elapsed":383598,"subject_id":"88757","group":"Group2","full_date":"2025-12-04T16:33:48.685Z","date":"2025-12-04","time":"16:33:48"},{"task":"memory_phase","broad_category":"M","image_png":"M_Phyllite_05.png","image_id":261,"category_name":"Phyllite","category":17,"distinct_rating":2.14,"distinct_type":"Bottom","rt":null,"stimulus":"Stimuli_Rocks480/M_Phyllite_05.png","response":null,"trial_type":"image-keyboard-response","trial_index":175,"plugin_version":"2.1.0","time_elapsed":386112,"subject_id":"88757","group":"Group2","full_date":"2025-12-04T16:33:48.685Z","date":"2025-12-04","time":"16:33:48"},{"rt":null,"stimulus":"<p style=\"font-size: 50px; margin: 0; text-align: center;\">+</p>","response":null,"trial_type":"html-keyboard-response","trial_index":176,"plugin_version":"2.1.0","time_elapsed":387125,"subject_id":"88757","group":"Group2","full_date":"2025-12-04T16:33:48.685Z","date":"2025-12-04","time":"16:33:48"},{"task":"memory_phase","broad_category":"M","image_png":"M_Quartzite_15.png","image_id":287,"category_name":"Quartzite","category":18,"distinct_rating":2.19,"distinct_type":"Bottom","rt":null,"stimulus":"Stimuli_Rocks480/M_Quartzite_15.png","response":null,"trial_type":"image-keyboard-response","trial_index":177,"plugin_version":"2.1.0","time_elapsed":389628,"subject_id":"88757","group":"Group2","full_date":"2025-12-04T16:33:48.685Z","date":"2025-12-04","time":"16:33:48"},{"rt":null,"stimulus":"<p style=\"font-size: 50px; margin: 0; text-align: center;\">+</p>","response":null,"trial_type":"html-keyboard-response","trial_index":178,"plugin_version":"2.1.0","time_elapsed":390644,"subject_id":"88757","group":"Group2","full_date":"2025-12-04T16:33:48.685Z","date":"2025-12-04","time":"16:33:48"},{"task":"memory_phase","broad_category":"M","image_png":"M_Slate_14.png","image_id":318,"category_name":"Slate","category":20,"distinct_rating":2.58,"distinct_type":"Bottom","rt":null,"stimulus":"Stimuli_Rocks480/M_Slate_14.png","response":null,"trial_type":"image-keyboard-response","trial_index":179,"plugin_version":"2.1.0","time_elapsed":393156,"subject_id":"88757","group":"Group2","full_date":"2025-12-04T16:33:48.685Z","date":"2025-12-04","time":"16:33:48"},{"rt":null,"stimulus":"<p style=\"font-size: 50px; margin: 0; text-align: center;\">+</p>","response":null,"trial_type":"html-keyboard-response","trial_index":180,"plugin_version":"2.1.0","time_elapsed":394160,"subject_id":"88757","group":"Group2","full_date":"2025-12-04T16:33:48.685Z","date":"2025-12-04","time":"16:33:48"},{"task":"memory_phase","broad_category":"I","image_png":"I_Diorite_01.png","image_id":33,"category_name":"Diorite","category":3,"distinct_rating":2.97,"distinct_type":"Bottom","rt":null,"stimulus":"Stimuli_Rocks480/I_Diorite_01.png","response":null,"trial_type":"image-keyboard-response","trial_index":181,"plugin_version":"2.1.0","time_elapsed":396678,"subject_id":"88757","group":"Group2","full_date":"2025-12-04T16:33:48.685Z","date":"2025-12-04","time":"16:33:48"},{"rt":null,"stimulus":"<p style=\"font-size: 50px; margin: 0; text-align: center;\">+</p>","response":null,"trial_type":"html-keyboard-response","trial_index":182,"plugin_version":"2.1.0","time_elapsed":397693,"subject_id":"88757","group":"Group2","full_date":"2025-12-04T16:33:48.685Z","date":"2025-12-04","time":"16:33:48"},{"task":"memory_phase","broad_category":"I","image_png":"I_Gabbro_12.png","image_id":60,"category_name":"Gabbro","category":4,"distinct_rating":2.6,"distinct_type":"Bottom","rt":null,"stimulus":"Stimuli_Rocks480/I_Gabbro_12.png","response":null,"trial_type":"image-keyboard-response","trial_index":183,"plugin_version":"2.1.0","time_elapsed":400208,"subject_id":"88757","group":"Group2","full_date":"2025-12-04T16:33:48.685Z","date":"2025-12-04","time":"16:33:48"},{"rt":null,"stimulus":"<p style=\"font-size: 50px; margin: 0; text-align: center;\">+</p>","response":null,"trial_type":"html-keyboard-response","trial_index":184,"plugin_version":"2.1.0","time_elapsed":401215,"subject_id":"88757","group":"Group2","full_date":"2025-12-04T16:33:48.685Z","date":"2025-12-04","time":"16:33:48"},{"task":"memory_phase","broad_category":"I","image_png":"I_Diorite_15.png","image_id":47,"category_name":"Diorite","category":3,"distinct_rating":3.05,"distinct_type":"Bottom","rt":null,"stimulus":"Stimuli_Rocks480/I_Diorite_15.png","response":null,"trial_type":"image-keyboard-response","trial_index":185,"plugin_version":"2.1.0","time_elapsed":403723,"subject_id":"88757","group":"Group2","full_date":"2025-12-04T16:33:48.685Z","date":"2025-12-04","time":"16:33:48"},{"rt":null,"stimulus":"<p style=\"font-size: 50px; margin: 0; text-align: center;\">+</p>","response":null,"trial_type":"html-keyboard-response","trial_index":186,"plugin_version":"2.1.0","time_elapsed":404737,"subject_id":"88757","group":"Group2","full_date":"2025-12-04T16:33:48.685Z","date":"2025-12-04","time":"16:33:48"},{"task":"memory_phase","broad_category":"S","image_png":"S_Dolomite_16.png","image_id":400,"category_name":"Dolomite","category":25,"distinct_rating":1.71,"distinct_type":"Bottom","rt":null,"stimulus":"Stimuli_Rocks480/S_Dolomite_16.png","response":null,"trial_type":"image-keyboard-response","trial_index":187,"plugin_version":"2.1.0","time_elapsed":407250,"subject_id":"88757","group":"Group2","full_date":"2025-12-04T16:33:48.685Z","date":"2025-12-04","time":"16:33:48"},{"rt":null,"stimulus":"<p style=\"font-size: 50px; margin: 0; text-align: center;\">+</p>","response":null,"trial_type":"html-keyboard-response","trial_index":188,"plugin_version":"2.1.0","time_elapsed":408257,"subject_id":"88757","group":"Group2","full_date":"2025-12-04T16:33:48.685Z","date":"2025-12-04","time":"16:33:48"},{"task":"memory_phase","broad_category":"M","image_png":"M_Marble_14.png","image_id":238,"category_name":"Marble","category":15,"distinct_rating":3.31,"distinct_type":"Bottom","rt":null,"stimulus":"Stimuli_Rocks480/M_Marble_14.png","response":null,"trial_type":"image-keyboard-response","trial_index":189,"plugin_version":"2.1.0","time_elapsed":410766,"subject_id":"88757","group":"Group2","full_date":"2025-12-04T16:33:48.685Z","date":"2025-12-04","time":"16:33:48"},{"rt":null,"stimulus":"<p style=\"font-size: 50px; margin: 0; text-align: center;\">+</p>","response":null,"trial_type":"html-keyboard-response","trial_index":190,"plugin_version":"2.1.0","time_elapsed":411779,"subject_id":"88757","group":"Group2","full_date":"2025-12-04T16:33:48.685Z","date":"2025-12-04","time":"16:33:48"},{"task":"memory_phase","broad_category":"I","image_png":"I_Obsidian_06.png","image_id":86,"category_name":"Obsidian","category":6,"distinct_rating":8.01,"distinct_type":"Top","rt":null,"stimulus":"Stimuli_Rocks480/I_Obsidian_06.png","response":null,"trial_type":"image-keyboard-response","trial_index":191,"plugin_version":"2.1.0","time_elapsed":414287,"subject_id":"88757","group":"Group2","full_date":"2025-12-04T16:33:48.685Z","date":"2025-12-04","time":"16:33:48"},{"rt":null,"stimulus":"<p style=\"font-size: 50px; margin: 0; text-align: center;\">+</p>","response":null,"trial_type":"html-keyboard-response","trial_index":192,"plugin_version":"2.1.0","time_elapsed":415291,"subject_id":"88757","group":"Group2","full_date":"2025-12-04T16:33:48.685Z","date":"2025-12-04","time":"16:33:48"},{"task":"memory_phase","broad_category":"I","image_png":"I_Rhyolite_10.png","image_id":154,"category_name":"Rhyolite","category":10,"distinct_rating":2.88,"distinct_type":"Bottom","rt":null,"stimulus":"Stimuli_Rocks480/I_Rhyolite_10.png","response":null,"trial_type":"image-keyboard-response","trial_index":193,"plugin_version":"2.1.0","time_elapsed":417808,"subject_id":"88757","group":"Group2","full_date":"2025-12-04T16:33:48.685Z","date":"2025-12-04","time":"16:33:48"},{"rt":null,"stimulus":"<p style=\"font-size: 50px; margin: 0; text-align: center;\">+</p>","response":null,"trial_type":"html-keyboard-response","trial_index":194,"plugin_version":"2.1.0","time_elapsed":418818,"subject_id":"88757","group":"Group2","full_date":"2025-12-04T16:33:48.685Z","date":"2025-12-04","time":"16:33:48"},{"task":"memory_phase","broad_category":"I","image_png":"I_Gabbro_02.png","image_id":50,"category_name":"Gabbro","category":4,"distinct_rating":2.73,"distinct_type":"Bottom","rt":null,"stimulus":"Stimuli_Rocks480/I_Gabbro_02.png","response":null,"trial_type":"image-keyboard-response","trial_index":195,"plugin_version":"2.1.0","time_elapsed":421332,"subject_id":"88757","group":"Group2","full_date":"2025-12-04T16:33:48.685Z","date":"2025-12-04","time":"16:33:48"},{"rt":null,"stimulus":"<p style=\"font-size: 50px; margin: 0; text-align: center;\">+</p>","response":null,"trial_type":"html-keyboard-response","trial_index":196,"plugin_version":"2.1.0","time_elapsed":422347,"subject_id":"88757","group":"Group2","full_date":"2025-12-04T16:33:48.685Z","date":"2025-12-04","time":"16:33:48"},{"task":"memory_phase","broad_category":"I","image_png":"I_Pumice_13.png","image_id":141,"category_name":"Pumice","category":9,"distinct_rating":3.12,"distinct_type":"Bottom","rt":null,"stimulus":"Stimuli_Rocks480/I_Pumice_13.png","response":null,"trial_type":"image-keyboard-response","trial_index":197,"plugin_version":"2.1.0","time_elapsed":424863,"subject_id":"88757","group":"Group2","full_date":"2025-12-04T16:33:48.685Z","date":"2025-12-04","time":"16:33:48"},{"rt":null,"stimulus":"<p style=\"font-size: 50px; margin: 0; text-align: center;\">+</p>","response":null,"trial_type":"html-keyboard-response","trial_index":198,"plugin_version":"2.1.0","time_elapsed":425876,"subject_id":"88757","group":"Group2","full_date":"2025-12-04T16:33:48.685Z","date":"2025-12-04","time":"16:33:48"},{"task":"memory_phase","broad_category":"I","image_png":"I_Pumice_14.png","image_id":142,"category_name":"Pumice","category":9,"distinct_rating":3.22,"distinct_type":"Bottom","rt":null,"stimulus":"Stimuli_Rocks480/I_Pumice_14.png","response":null,"trial_type":"image-keyboard-response","trial_index":199,"plugin_version":"2.1.0","time_elapsed":428387,"subject_id":"88757","group":"Group2","full_date":"2025-12-04T16:33:48.685Z","date":"2025-12-04","time":"16:33:48"},{"rt":null,"stimulus":"<p style=\"font-size: 50px; margin: 0; text-align: center;\">+</p>","response":null,"trial_type":"html-keyboard-response","trial_index":200,"plugin_version":"2.1.0","time_elapsed":429401,"subject_id":"88757","group":"Group2","full_date":"2025-12-04T16:33:48.685Z","date":"2025-12-04","time":"16:33:48"},{"task":"memory_phase","broad_category":"M","image_png":"M_Quartzite_07.png","image_id":279,"category_name":"Quartzite","category":18,"distinct_rating":1.97,"distinct_type":"Bottom","rt":null,"stimulus":"Stimuli_Rocks480/M_Quartzite_07.png","response":null,"trial_type":"image-keyboard-response","trial_index":201,"plugin_version":"2.1.0","time_elapsed":431912,"subject_id":"88757","group":"Group2","full_date":"2025-12-04T16:33:48.685Z","date":"2025-12-04","time":"16:33:48"},{"rt":null,"stimulus":"<p style=\"font-size: 50px; margin: 0; text-align: center;\">+</p>","response":null,"trial_type":"html-keyboard-response","trial_index":202,"plugin_version":"2.1.0","time_elapsed":432925,"subject_id":"88757","group":"Group2","full_date":"2025-12-04T16:33:48.685Z","date":"2025-12-04","time":"16:33:48"},{"task":"memory_phase","broad_category":"M","image_png":"M_Quartzite_12.png","image_id":284,"category_name":"Quartzite","category":18,"distinct_rating":1.92,"distinct_type":"Bottom","rt":null,"stimulus":"Stimuli_Rocks480/M_Quartzite_12.png","response":null,"trial_type":"image-keyboard-response","trial_index":203,"plugin_version":"2.1.0","time_elapsed":435432,"subject_id":"88757","group":"Group2","full_date":"2025-12-04T16:33:48.685Z","date":"2025-12-04","time":"16:33:48"},{"rt":null,"stimulus":"<p style=\"font-size: 50px; margin: 0; text-align: center;\">+</p>","response":null,"trial_type":"html-keyboard-response","trial_index":204,"plugin_version":"2.1.0","time_elapsed":436447,"subject_id":"88757","group":"Group2","full_date":"2025-12-04T16:33:48.685Z","date":"2025-12-04","time":"16:33:48"},{"task":"memory_phase","broad_category":"M","image_png":"M_Slate_10.png","image_id":314,"category_name":"Slate","category":20,"distinct_rating":1.94,"distinct_type":"Bottom","rt":null,"stimulus":"Stimuli_Rocks480/M_Slate_10.png","response":null,"trial_type":"image-keyboard-response","trial_index":205,"plugin_version":"2.1.0","time_elapsed":438965,"subject_id":"88757","group":"Group2","full_date":"2025-12-04T16:33:48.685Z","date":"2025-12-04","time":"16:33:48"},{"rt":null,"stimulus":"<p style=\"font-size: 50px; margin: 0; text-align: center;\">+</p>","response":null,"trial_type":"html-keyboard-response","trial_index":206,"plugin_version":"2.1.0","time_elapsed":439975,"subject_id":"88757","group":"Group2","full_date":"2025-12-04T16:33:48.685Z","date":"2025-12-04","time":"16:33:48"},{"task":"memory_phase","broad_category":"S","image_png":"S_Chert_13.png","image_id":365,"category_name":"Chert","category":23,"distinct_rating":6.57,"distinct_type":"Top","rt":null,"stimulus":"Stimuli_Rocks480/S_Chert_13.png","response":null,"trial_type":"image-keyboard-response","trial_index":207,"plugin_version":"2.1.0","time_elapsed":442483,"subject_id":"88757","group":"Group2","full_date":"2025-12-04T16:33:48.685Z","date":"2025-12-04","time":"16:33:48"},{"rt":3395,"stimulus":"<p style=\"max-width: 760px; margin: auto; font-size: 35px; line-height: 1.5;\">You have completed 2 study phases. Now, we'll show you all the images again 1 more time.<br><br>Press SPACE to continue</p>","response":" ","trial_type":"html-keyboard-response","trial_index":208,"plugin_version":"2.1.0","time_elapsed":445880,"subject_id":"88757","group":"Group2","full_date":"2025-12-04T16:33:48.685Z","date":"2025-12-04","time":"16:33:48"},{"rt":null,"stimulus":"<p style=\"font-size: 50px; margin: 0; text-align: center;\">+</p>","response":null,"trial_type":"html-keyboard-response","trial_index":209,"plugin_version":"2.1.0","time_elapsed":446884,"subject_id":"88757","group":"Group2","full_date":"2025-12-04T16:33:48.685Z","date":"2025-12-04","time":"16:33:48"},{"task":"memory_phase","broad_category":"M","image_png":"M_Gneiss_14.png","image_id":206,"category_name":"Gneiss","category":13,"distinct_rating":3.41,"distinct_type":"Bottom","rt":null,"stimulus":"Stimuli_Rocks480/M_Gneiss_14.png","response":null,"trial_type":"image-keyboard-response","trial_index":210,"plugin_version":"2.1.0","time_elapsed":449391,"subject_id":"88757","group":"Group2","full_date":"2025-12-04T16:33:48.685Z","date":"2025-12-04","time":"16:33:48"},{"rt":null,"stimulus":"<p style=\"font-size: 50px; margin: 0; text-align: center;\">+</p>","response":null,"trial_type":"html-keyboard-response","trial_index":211,"plugin_version":"2.1.0","time_elapsed":450398,"subject_id":"88757","group":"Group2","full_date":"2025-12-04T16:33:48.685Z","date":"2025-12-04","time":"16:33:48"},{"task":"memory_phase","broad_category":"I","image_png":"I_Rhyolite_10.png","image_id":154,"category_name":"Rhyolite","category":10,"distinct_rating":2.88,"distinct_type":"Bottom","rt":null,"stimulus":"Stimuli_Rocks480/I_Rhyolite_10.png","response":null,"trial_type":"image-keyboard-response","trial_index":212,"plugin_version":"2.1.0","time_elapsed":452908,"subject_id":"88757","group":"Group2","full_date":"2025-12-04T16:33:48.685Z","date":"2025-12-04","time":"16:33:48"},{"rt":null,"stimulus":"<p style=\"font-size: 50px; margin: 0; text-align: center;\">+</p>","response":null,"trial_type":"html-keyboard-response","trial_index":213,"plugin_version":"2.1.0","time_elapsed":453915,"subject_id":"88757","group":"Group2","full_date":"2025-12-04T16:33:48.685Z","date":"2025-12-04","time":"16:33:48"},{"task":"memory_phase","broad_category":"I","image_png":"I_Gabbro_02.png","image_id":50,"category_name":"Gabbro","category":4,"distinct_rating":2.73,"distinct_type":"Bottom","rt":null,"stimulus":"Stimuli_Rocks480/I_Gabbro_02.png","response":null,"trial_type":"image-keyboard-response","trial_index":214,"plugin_version":"2.1.0","time_elapsed":456436,"subject_id":"88757","group":"Group2","full_date":"2025-12-04T16:33:48.685Z","date":"2025-12-04","time":"16:33:48"},{"rt":null,"stimulus":"<p style=\"font-size: 50px; margin: 0; text-align: center;\">+</p>","response":null,"trial_type":"html-keyboard-response","trial_index":215,"plugin_version":"2.1.0","time_elapsed":457442,"subject_id":"88757","group":"Group2","full_date":"2025-12-04T16:33:48.685Z","date":"2025-12-04","time":"16:33:48"},{"task":"memory_phase","broad_category":"I","image_png":"I_Andesite_04.png","image_id":4,"category_name":"Andesite","category":1,"distinct_rating":3.18,"distinct_type":"Bottom","rt":null,"stimulus":"Stimuli_Rocks480/I_Andesite_04.png","response":null,"trial_type":"image-keyboard-response","trial_index":216,"plugin_version":"2.1.0","time_elapsed":459954,"subject_id":"88757","group":"Group2","full_date":"2025-12-04T16:33:48.685Z","date":"2025-12-04","time":"16:33:48"},{"rt":null,"stimulus":"<p style=\"font-size: 50px; margin: 0; text-align: center;\">+</p>","response":null,"trial_type":"html-keyboard-response","trial_index":217,"plugin_version":"2.1.0","time_elapsed":460957,"subject_id":"88757","group":"Group2","full_date":"2025-12-04T16:33:48.685Z","date":"2025-12-04","time":"16:33:48"},{"task":"memory_phase","broad_category":"M","image_png":"M_Phyllite_02.png","image_id":258,"category_name":"Phyllite","category":17,"distinct_rating":2.89,"distinct_type":"Bottom","rt":null,"stimulus":"Stimuli_Rocks480/M_Phyllite_02.png","response":null,"trial_type":"image-keyboard-response","trial_index":218,"plugin_version":"2.1.0","time_elapsed":463464,"subject_id":"88757","group":"Group2","full_date":"2025-12-04T16:33:48.685Z","date":"2025-12-04","time":"16:33:48"},{"rt":null,"stimulus":"<p style=\"font-size: 50px; margin: 0; text-align: center;\">+</p>","response":null,"trial_type":"html-keyboard-response","trial_index":219,"plugin_version":"2.1.0","time_elapsed":464480,"subject_id":"88757","group":"Group2","full_date":"2025-12-04T16:33:48.685Z","date":"2025-12-04","time":"16:33:48"},{"task":"memory_phase","broad_category":"I","image_png":"I_Andesite_09.png","image_id":9,"category_name":"Andesite","category":1,"distinct_rating":2.49,"distinct_type":"Bottom","rt":null,"stimulus":"Stimuli_Rocks480/I_Andesite_09.png","response":null,"trial_type":"image-keyboard-response","trial_index":220,"plugin_version":"2.1.0","time_elapsed":466997,"subject_id":"88757","group":"Group2","full_date":"2025-12-04T16:33:48.685Z","date":"2025-12-04","time":"16:33:48"},{"rt":null,"stimulus":"<p style=\"font-size: 50px; margin: 0; text-align: center;\">+</p>","response":null,"trial_type":"html-keyboard-response","trial_index":221,"plugin_version":"2.1.0","time_elapsed":468008,"subject_id":"88757","group":"Group2","full_date":"2025-12-04T16:33:48.685Z","date":"2025-12-04","time":"16:33:48"},{"task":"memory_phase","broad_category":"S","image_png":"S_Dolomite_07.png","image_id":391,"category_name":"Dolomite","category":25,"distinct_rating":1.73,"distinct_type":"Bottom","rt":null,"stimulus":"Stimuli_Rocks480/S_Dolomite_07.png","response":null,"trial_type":"image-keyboard-response","trial_index":222,"plugin_version":"2.1.0","time_elapsed":470524,"subject_id":"88757","group":"Group2","full_date":"2025-12-04T16:33:48.685Z","date":"2025-12-04","time":"16:33:48"},{"rt":null,"stimulus":"<p style=\"font-size: 50px; margin: 0; text-align: center;\">+</p>","response":null,"trial_type":"html-keyboard-response","trial_index":223,"plugin_version":"2.1.0","time_elapsed":471541,"subject_id":"88757","group":"Group2","full_date":"2025-12-04T16:33:48.685Z","date":"2025-12-04","time":"16:33:48"},{"task":"memory_phase","broad_category":"M","image_png":"M_Slate_14.png","image_id":318,"category_name":"Slate","category":20,"distinct_rating":2.58,"distinct_type":"Bottom","rt":null,"stimulus":"Stimuli_Rocks480/M_Slate_14.png","response":null,"trial_type":"image-keyboard-response","trial_index":224,"plugin_version":"2.1.0","time_elapsed":474054,"subject_id":"88757","group":"Group2","full_date":"2025-12-04T16:33:48.685Z","date":"2025-12-04","time":"16:33:48"},{"rt":null,"stimulus":"<p style=\"font-size: 50px; margin: 0; text-align: center;\">+</p>","response":null,"trial_type":"html-keyboard-response","trial_index":225,"plugin_version":"2.1.0","time_elapsed":475061,"subject_id":"88757","group":"Group2","full_date":"2025-12-04T16:33:48.685Z","date":"2025-12-04","time":"16:33:48"},{"task":"memory_phase","broad_category":"S","image_png":"S_Dolomite_16.png","image_id":400,"category_name":"Dolomite","category":25,"distinct_rating":1.71,"distinct_type":"Bottom","rt":null,"stimulus":"Stimuli_Rocks480/S_Dolomite_16.png","response":null,"trial_type":"image-keyboard-response","trial_index":226,"plugin_version":"2.1.0","time_elapsed":477570,"subject_id":"88757","group":"Group2","full_date":"2025-12-04T16:33:48.685Z","date":"2025-12-04","time":"16:33:48"},{"rt":null,"stimulus":"<p style=\"font-size: 50px; margin: 0; text-align: center;\">+</p>","response":null,"trial_type":"html-keyboard-response","trial_index":227,"plugin_version":"2.1.0","time_elapsed":478575,"subject_id":"88757","group":"Group2","full_date":"2025-12-04T16:33:48.685Z","date":"2025-12-04","time":"16:33:48"},{"task":"memory_phase","broad_category":"S","image_png":"S_Shale_03.png","image_id":467,"category_name":"Shale","category":30,"distinct_rating":1.95,"distinct_type":"Bottom","rt":null,"stimulus":"Stimuli_Rocks480/S_Shale_03.png","response":null,"trial_type":"image-keyboard-response","trial_index":228,"plugin_version":"2.1.0","time_elapsed":481087,"subject_id":"88757","group":"Group2","full_date":"2025-12-04T16:33:48.685Z","date":"2025-12-04","time":"16:33:48"},{"rt":null,"stimulus":"<p style=\"font-size: 50px; margin: 0; text-align: center;\">+</p>","response":null,"trial_type":"html-keyboard-response","trial_index":229,"plugin_version":"2.1.0","time_elapsed":482097,"subject_id":"88757","group":"Group2","full_date":"2025-12-04T16:33:48.685Z","date":"2025-12-04","time":"16:33:48"},{"task":"memory_phase","broad_category":"I","image_png":"I_Rhyolite_05.png","image_id":149,"category_name":"Rhyolite","category":10,"distinct_rating":3.02,"distinct_type":"Bottom","rt":null,"stimulus":"Stimuli_Rocks480/I_Rhyolite_05.png","response":null,"trial_type":"image-keyboard-response","trial_index":230,"plugin_version":"2.1.0","time_elapsed":484608,"subject_id":"88757","group":"Group2","full_date":"2025-12-04T16:33:48.685Z","date":"2025-12-04","time":"16:33:48"},{"rt":null,"stimulus":"<p style=\"font-size: 50px; margin: 0; text-align: center;\">+</p>","response":null,"trial_type":"html-keyboard-response","trial_index":231,"plugin_version":"2.1.0","time_elapsed":485612,"subject_id":"88757","group":"Group2","full_date":"2025-12-04T16:33:48.685Z","date":"2025-12-04","time":"16:33:48"},{"task":"memory_phase","broad_category":"M","image_png":"M_Slate_04.png","image_id":308,"category_name":"Slate","category":20,"distinct_rating":2.2,"distinct_type":"Bottom","rt":null,"stimulus":"Stimuli_Rocks480/M_Slate_04.png","response":null,"trial_type":"image-keyboard-response","trial_index":232,"plugin_version":"2.1.0","time_elapsed":488122,"subject_id":"88757","group":"Group2","full_date":"2025-12-04T16:33:48.685Z","date":"2025-12-04","time":"16:33:48"},{"rt":null,"stimulus":"<p style=\"font-size: 50px; margin: 0; text-align: center;\">+</p>","response":null,"trial_type":"html-keyboard-response","trial_index":233,"plugin_version":"2.1.0","time_elapsed":489130,"subject_id":"88757","group":"Group2","full_date":"2025-12-04T16:33:48.685Z","date":"2025-12-04","time":"16:33:48"},{"task":"memory_phase","broad_category":"M","image_png":"M_Phyllite_05.png","image_id":261,"category_name":"Phyllite","category":17,"distinct_rating":2.14,"distinct_type":"Bottom","rt":null,"stimulus":"Stimuli_Rocks480/M_Phyllite_05.png","response":null,"trial_type":"image-keyboard-response","trial_index":234,"plugin_version":"2.1.0","time_elapsed":491648,"subject_id":"88757","group":"Group2","full_date":"2025-12-04T16:33:48.685Z","date":"2025-12-04","time":"16:33:48"},{"rt":null,"stimulus":"<p style=\"font-size: 50px; margin: 0; text-align: center;\">+</p>","response":null,"trial_type":"html-keyboard-response","trial_index":235,"plugin_version":"2.1.0","time_elapsed":492661,"subject_id":"88757","group":"Group2","full_date":"2025-12-04T16:33:48.685Z","date":"2025-12-04","time":"16:33:48"},{"task":"memory_phase","broad_category":"I","image_png":"I_Diorite_10.png","image_id":42,"category_name":"Diorite","category":3,"distinct_rating":2.84,"distinct_type":"Bottom","rt":null,"stimulus":"Stimuli_Rocks480/I_Diorite_10.png","response":null,"trial_type":"image-keyboard-response","trial_index":236,"plugin_version":"2.1.0","time_elapsed":495178,"subject_id":"88757","group":"Group2","full_date":"2025-12-04T16:33:48.685Z","date":"2025-12-04","time":"16:33:48"},{"rt":null,"stimulus":"<p style=\"font-size: 50px; margin: 0; text-align: center;\">+</p>","response":null,"trial_type":"html-keyboard-response","trial_index":237,"plugin_version":"2.1.0","time_elapsed":496182,"subject_id":"88757","group":"Group2","full_date":"2025-12-04T16:33:48.685Z","date":"2025-12-04","time":"16:33:48"},{"task":"memory_phase","broad_category":"M","image_png":"M_Slate_10.png","image_id":314,"category_name":"Slate","category":20,"distinct_rating":1.94,"distinct_type":"Bottom","rt":null,"stimulus":"Stimuli_Rocks480/M_Slate_10.png","response":null,"trial_type":"image-keyboard-response","trial_index":238,"plugin_version":"2.1.0","time_elapsed":498697,"subject_id":"88757","group":"Group2","full_date":"2025-12-04T16:33:48.685Z","date":"2025-12-04","time":"16:33:48"},{"rt":null,"stimulus":"<p style=\"font-size: 50px; margin: 0; text-align: center;\">+</p>","response":null,"trial_type":"html-keyboard-response","trial_index":239,"plugin_version":"2.1.0","time_elapsed":499714,"subject_id":"88757","group":"Group2","full_date":"2025-12-04T16:33:48.685Z","date":"2025-12-04","time":"16:33:48"},{"task":"memory_phase","broad_category":"M","image_png":"M_Gneiss_15.png","image_id":207,"category_name":"Gneiss","category":13,"distinct_rating":3.11,"distinct_type":"Bottom","rt":null,"stimulus":"Stimuli_Rocks480/M_Gneiss_15.png","response":null,"trial_type":"image-keyboard-response","trial_index":240,"plugin_version":"2.1.0","time_elapsed":502230,"subject_id":"88757","group":"Group2","full_date":"2025-12-04T16:33:48.685Z","date":"2025-12-04","time":"16:33:48"},{"rt":null,"stimulus":"<p style=\"font-size: 50px; margin: 0; text-align: center;\">+</p>","response":null,"trial_type":"html-keyboard-response","trial_index":241,"plugin_version":"2.1.0","time_elapsed":503237,"subject_id":"88757","group":"Group2","full_date":"2025-12-04T16:33:48.685Z","date":"2025-12-04","time":"16:33:48"},{"task":"memory_phase","broad_category":"I","image_png":"I_Diorite_01.png","image_id":33,"category_name":"Diorite","category":3,"distinct_rating":2.97,"distinct_type":"Bottom","rt":null,"stimulus":"Stimuli_Rocks480/I_Diorite_01.png","response":null,"trial_type":"image-keyboard-response","trial_index":242,"plugin_version":"2.1.0","time_elapsed":505741,"subject_id":"88757","group":"Group2","full_date":"2025-12-04T16:33:48.685Z","date":"2025-12-04","time":"16:33:48"},{"rt":null,"stimulus":"<p style=\"font-size: 50px; margin: 0; text-align: center;\">+</p>","response":null,"trial_type":"html-keyboard-response","trial_index":243,"plugin_version":"2.1.0","time_elapsed":506745,"subject_id":"88757","group":"Group2","full_date":"2025-12-04T16:33:48.685Z","date":"2025-12-04","time":"16:33:48"},{"task":"memory_phase","broad_category":"I","image_png":"I_Andesite_03.png","image_id":3,"category_name":"Andesite","category":1,"distinct_rating":3.17,"distinct_type":"Bottom","rt":null,"stimulus":"Stimuli_Rocks480/I_Andesite_03.png","response":null,"trial_type":"image-keyboard-response","trial_index":244,"plugin_version":"2.1.0","time_elapsed":509255,"subject_id":"88757","group":"Group2","full_date":"2025-12-04T16:33:48.685Z","date":"2025-12-04","time":"16:33:48"},{"rt":null,"stimulus":"<p style=\"font-size: 50px; margin: 0; text-align: center;\">+</p>","response":null,"trial_type":"html-keyboard-response","trial_index":245,"plugin_version":"2.1.0","time_elapsed":510261,"subject_id":"88757","group":"Group2","full_date":"2025-12-04T16:33:48.685Z","date":"2025-12-04","time":"16:33:48"},{"task":"memory_phase","broad_category":"M","image_png":"M_Phyllite_13.png","image_id":269,"category_name":"Phyllite","category":17,"distinct_rating":2.8,"distinct_type":"Bottom","rt":null,"stimulus":"Stimuli_Rocks480/M_Phyllite_13.png","response":null,"trial_type":"image-keyboard-response","trial_index":246,"plugin_version":"2.1.0","time_elapsed":512765,"subject_id":"88757","group":"Group2","full_date":"2025-12-04T16:33:48.685Z","date":"2025-12-04","time":"16:33:48"},{"rt":null,"stimulus":"<p style=\"font-size: 50px; margin: 0; text-align: center;\">+</p>","response":null,"trial_type":"html-keyboard-response","trial_index":247,"plugin_version":"2.1.0","time_elapsed":513778,"subject_id":"88757","group":"Group2","full_date":"2025-12-04T16:33:48.685Z","date":"2025-12-04","time":"16:33:48"},{"task":"memory_phase","broad_category":"I","image_png":"I_Pegmatite_11.png","image_id":107,"category_name":"Pegmatite","category":7,"distinct_rating":7.11,"distinct_type":"Top","rt":null,"stimulus":"Stimuli_Rocks480/I_Pegmatite_11.png","response":null,"trial_type":"image-keyboard-response","trial_index":248,"plugin_version":"2.1.0","time_elapsed":516282,"subject_id":"88757","group":"Group2",