[{"width":1440,"height":700,"webaudio":true,"browser":"chrome","browser_version":"139.0.0","mobile":false,"os":"Mac OS","fullscreen":true,"vsync_rate":60.56,"webcam":true,"microphone":true,"trial_type":"browser-check","trial_index":0,"plugin_version":"2.1.0","time_elapsed":1006,"subject_id":"89799","group":"Group2","full_date":"2025-12-03T22:33:29.060Z","date":"2025-12-03","time":"22:33:29"},{"success":true,"timeout":false,"failed_images":[],"failed_audio":[],"failed_video":[],"trial_type":"preload","trial_index":1,"plugin_version":"2.1.0","time_elapsed":3188,"subject_id":"89799","group":"Group2","full_date":"2025-12-03T22:33:29.060Z","date":"2025-12-03","time":"22:33:29"},{"rt":6748,"url":"SONA_consent_memorability.html","trial_type":"external-html","trial_index":2,"plugin_version":"2.1.0","time_elapsed":9986,"subject_id":"89799","group":"Group2","full_date":"2025-12-03T22:33:29.060Z","date":"2025-12-03","time":"22:33:29"},{"success":true,"rt":4983,"trial_type":"fullscreen","trial_index":3,"plugin_version":"2.1.0","time_elapsed":15973,"subject_id":"89799","group":"Group2","full_date":"2025-12-03T22:33:29.060Z","date":"2025-12-03","time":"22:33:29"},{"rt":17736,"stimulus":"<div style=\"max-width: 760px; margin: auto; font-size: 20px; line-height: 1.5;\">\n      <h1 style=\"text-align:center; font-size: 30px;\">Instructions</h1>\n      <p>\n        Welcome to the study on <b>visual memory</b>. This experiment consists of <b>two phases</b>: \n        a <b>study phase</b> and a <b>test phase</b>.\n      </p>\n      <p>\n        In the study phase, you will see a series of rock images along with their category labels.\n        The images will appear one at a time.\n        <b>Your task</b> is to learn the categories to which the rock images belong \n        and to remember each image as accurately as possible.\n      </p> \n      <p>\n        Note that we will repeat the study phase <b>3 times</b>, \n        so you will have multiple opportunities to see and remember each image.\n      </p>\n      <p>\n        After the study phase, <b>your memory will be tested</b>. \n        Additional instructions for the test phase will be provided at that time.\n      </p>\n      <p>\n        If your computer has multiple <b>language settings</b> (e.g., English and another language),\n        please make sure it is set to English before starting.\n      </p>\n      <p>\n        You can track your progress using the <b>completion bar</b> at the top of the screen. \n        Please note that the bar will refresh when the test phase begins \n        to give you an accurate sense of your progress in both phases.\n      </p> \n      <p>\n        Press the button below when you are ready to begin.\n      </p>\n    </div>","response":0,"trial_type":"html-button-response","trial_index":4,"plugin_version":"2.1.0","time_elapsed":33712,"subject_id":"89799","group":"Group2","full_date":"2025-12-03T22:33:29.060Z","date":"2025-12-03","time":"22:33:29"},{"rt":null,"stimulus":"<p style=\"font-size: 50px; margin: 0; text-align: center;\">+</p>","response":null,"trial_type":"html-keyboard-response","trial_index":5,"plugin_version":"2.1.0","time_elapsed":34717,"subject_id":"89799","group":"Group2","full_date":"2025-12-03T22:33:29.060Z","date":"2025-12-03","time":"22:33:29"},{"task":"memory_phase","broad_category":"I","image_png":"I_Rhyolite_05.png","image_id":149,"category_name":"Rhyolite","category":10,"distinct_rating":3.02,"distinct_type":"Bottom","rt":null,"stimulus":"Stimuli_Rocks480/I_Rhyolite_05.png","response":null,"trial_type":"image-keyboard-response","trial_index":6,"plugin_version":"2.1.0","time_elapsed":37223,"subject_id":"89799","group":"Group2","full_date":"2025-12-03T22:33:29.060Z","date":"2025-12-03","time":"22:33:29"},{"rt":null,"stimulus":"<p style=\"font-size: 50px; margin: 0; text-align: center;\">+</p>","response":null,"trial_type":"html-keyboard-response","trial_index":7,"plugin_version":"2.1.0","time_elapsed":38225,"subject_id":"89799","group":"Group2","full_date":"2025-12-03T22:33:29.060Z","date":"2025-12-03","time":"22:33:29"},{"task":"memory_phase","broad_category":"S","image_png":"S_Shale_07.png","image_id":471,"category_name":"Shale","category":30,"distinct_rating":2.73,"distinct_type":"Bottom","rt":null,"stimulus":"Stimuli_Rocks480/S_Shale_07.png","response":null,"trial_type":"image-keyboard-response","trial_index":8,"plugin_version":"2.1.0","time_elapsed":40730,"subject_id":"89799","group":"Group2","full_date":"2025-12-03T22:33:29.060Z","date":"2025-12-03","time":"22:33:29"},{"rt":null,"stimulus":"<p style=\"font-size: 50px; margin: 0; text-align: center;\">+</p>","response":null,"trial_type":"html-keyboard-response","trial_index":9,"plugin_version":"2.1.0","time_elapsed":41732,"subject_id":"89799","group":"Group2","full_date":"2025-12-03T22:33:29.060Z","date":"2025-12-03","time":"22:33:29"},{"task":"memory_phase","broad_category":"I","image_png":"I_Rhyolite_10.png","image_id":154,"category_name":"Rhyolite","category":10,"distinct_rating":2.88,"distinct_type":"Bottom","rt":null,"stimulus":"Stimuli_Rocks480/I_Rhyolite_10.png","response":null,"trial_type":"image-keyboard-response","trial_index":10,"plugin_version":"2.1.0","time_elapsed":44237,"subject_id":"89799","group":"Group2","full_date":"2025-12-03T22:33:29.060Z","date":"2025-12-03","time":"22:33:29"},{"rt":null,"stimulus":"<p style=\"font-size: 50px; margin: 0; text-align: center;\">+</p>","response":null,"trial_type":"html-keyboard-response","trial_index":11,"plugin_version":"2.1.0","time_elapsed":45239,"subject_id":"89799","group":"Group2","full_date":"2025-12-03T22:33:29.060Z","date":"2025-12-03","time":"22:33:29"},{"task":"memory_phase","broad_category":"M","image_png":"M_Quartzite_07.png","image_id":279,"category_name":"Quartzite","category":18,"distinct_rating":1.97,"distinct_type":"Bottom","rt":null,"stimulus":"Stimuli_Rocks480/M_Quartzite_07.png","response":null,"trial_type":"image-keyboard-response","trial_index":12,"plugin_version":"2.1.0","time_elapsed":47742,"subject_id":"89799","group":"Group2","full_date":"2025-12-03T22:33:29.060Z","date":"2025-12-03","time":"22:33:29"},{"rt":null,"stimulus":"<p style=\"font-size: 50px; margin: 0; text-align: center;\">+</p>","response":null,"trial_type":"html-keyboard-response","trial_index":13,"plugin_version":"2.1.0","time_elapsed":48744,"subject_id":"89799","group":"Group2","full_date":"2025-12-03T22:33:29.060Z","date":"2025-12-03","time":"22:33:29"},{"task":"memory_phase","broad_category":"I","image_png":"I_Basalt_08.png","image_id":24,"category_name":"Basalt","category":2,"distinct_rating":2.31,"distinct_type":"Bottom","rt":null,"stimulus":"Stimuli_Rocks480/I_Basalt_08.png","response":null,"trial_type":"image-keyboard-response","trial_index":14,"plugin_version":"2.1.0","time_elapsed":51248,"subject_id":"89799","group":"Group2","full_date":"2025-12-03T22:33:29.060Z","date":"2025-12-03","time":"22:33:29"},{"rt":null,"stimulus":"<p style=\"font-size: 50px; margin: 0; text-align: center;\">+</p>","response":null,"trial_type":"html-keyboard-response","trial_index":15,"plugin_version":"2.1.0","time_elapsed":52251,"subject_id":"89799","group":"Group2","full_date":"2025-12-03T22:33:29.060Z","date":"2025-12-03","time":"22:33:29"},{"task":"memory_phase","broad_category":"I","image_png":"I_Obsidian_06.png","image_id":86,"category_name":"Obsidian","category":6,"distinct_rating":8.01,"distinct_type":"Top","rt":null,"stimulus":"Stimuli_Rocks480/I_Obsidian_06.png","response":null,"trial_type":"image-keyboard-response","trial_index":16,"plugin_version":"2.1.0","time_elapsed":54755,"subject_id":"89799","group":"Group2","full_date":"2025-12-03T22:33:29.060Z","date":"2025-12-03","time":"22:33:29"},{"rt":null,"stimulus":"<p style=\"font-size: 50px; margin: 0; text-align: center;\">+</p>","response":null,"trial_type":"html-keyboard-response","trial_index":17,"plugin_version":"2.1.0","time_elapsed":55758,"subject_id":"89799","group":"Group2","full_date":"2025-12-03T22:33:29.060Z","date":"2025-12-03","time":"22:33:29"},{"task":"memory_phase","broad_category":"S","image_png":"S_Dolomite_01.png","image_id":385,"category_name":"Dolomite","category":25,"distinct_rating":1.43,"distinct_type":"Bottom","rt":null,"stimulus":"Stimuli_Rocks480/S_Dolomite_01.png","response":null,"trial_type":"image-keyboard-response","trial_index":18,"plugin_version":"2.1.0","time_elapsed":58261,"subject_id":"89799","group":"Group2","full_date":"2025-12-03T22:33:29.060Z","date":"2025-12-03","time":"22:33:29"},{"rt":null,"stimulus":"<p style=\"font-size: 50px; margin: 0; text-align: center;\">+</p>","response":null,"trial_type":"html-keyboard-response","trial_index":19,"plugin_version":"2.1.0","time_elapsed":59264,"subject_id":"89799","group":"Group2","full_date":"2025-12-03T22:33:29.060Z","date":"2025-12-03","time":"22:33:29"},{"task":"memory_phase","broad_category":"I","image_png":"I_Pumice_14.png","image_id":142,"category_name":"Pumice","category":9,"distinct_rating":3.22,"distinct_type":"Bottom","rt":null,"stimulus":"Stimuli_Rocks480/I_Pumice_14.png","response":null,"trial_type":"image-keyboard-response","trial_index":20,"plugin_version":"2.1.0","time_elapsed":61768,"subject_id":"89799","group":"Group2","full_date":"2025-12-03T22:33:29.060Z","date":"2025-12-03","time":"22:33:29"},{"rt":null,"stimulus":"<p style=\"font-size: 50px; margin: 0; text-align: center;\">+</p>","response":null,"trial_type":"html-keyboard-response","trial_index":21,"plugin_version":"2.1.0","time_elapsed":62771,"subject_id":"89799","group":"Group2","full_date":"2025-12-03T22:33:29.060Z","date":"2025-12-03","time":"22:33:29"},{"task":"memory_phase","broad_category":"M","image_png":"M_Phyllite_02.png","image_id":258,"category_name":"Phyllite","category":17,"distinct_rating":2.89,"distinct_type":"Bottom","rt":null,"stimulus":"Stimuli_Rocks480/M_Phyllite_02.png","response":null,"trial_type":"image-keyboard-response","trial_index":22,"plugin_version":"2.1.0","time_elapsed":65275,"subject_id":"89799","group":"Group2","full_date":"2025-12-03T22:33:29.060Z","date":"2025-12-03","time":"22:33:29"},{"rt":null,"stimulus":"<p style=\"font-size: 50px; margin: 0; text-align: center;\">+</p>","response":null,"trial_type":"html-keyboard-response","trial_index":23,"plugin_version":"2.1.0","time_elapsed":66278,"subject_id":"89799","group":"Group2","full_date":"2025-12-03T22:33:29.060Z","date":"2025-12-03","time":"22:33:29"},{"task":"memory_phase","broad_category":"I","image_png":"I_Gabbro_12.png","image_id":60,"category_name":"Gabbro","category":4,"distinct_rating":2.6,"distinct_type":"Bottom","rt":null,"stimulus":"Stimuli_Rocks480/I_Gabbro_12.png","response":null,"trial_type":"image-keyboard-response","trial_index":24,"plugin_version":"2.1.0","time_elapsed":68782,"subject_id":"89799","group":"Group2","full_date":"2025-12-03T22:33:29.060Z","date":"2025-12-03","time":"22:33:29"},{"rt":null,"stimulus":"<p style=\"font-size: 50px; margin: 0; text-align: center;\">+</p>","response":null,"trial_type":"html-keyboard-response","trial_index":25,"plugin_version":"2.1.0","time_elapsed":69784,"subject_id":"89799","group":"Group2","full_date":"2025-12-03T22:33:29.060Z","date":"2025-12-03","time":"22:33:29"},{"task":"memory_phase","broad_category":"M","image_png":"M_Phyllite_13.png","image_id":269,"category_name":"Phyllite","category":17,"distinct_rating":2.8,"distinct_type":"Bottom","rt":null,"stimulus":"Stimuli_Rocks480/M_Phyllite_13.png","response":null,"trial_type":"image-keyboard-response","trial_index":26,"plugin_version":"2.1.0","time_elapsed":72288,"subject_id":"89799","group":"Group2","full_date":"2025-12-03T22:33:29.060Z","date":"2025-12-03","time":"22:33:29"},{"rt":null,"stimulus":"<p style=\"font-size: 50px; margin: 0; text-align: center;\">+</p>","response":null,"trial_type":"html-keyboard-response","trial_index":27,"plugin_version":"2.1.0","time_elapsed":73290,"subject_id":"89799","group":"Group2","full_date":"2025-12-03T22:33:29.060Z","date":"2025-12-03","time":"22:33:29"},{"task":"memory_phase","broad_category":"M","image_png":"M_Gneiss_10.png","image_id":202,"category_name":"Gneiss","category":13,"distinct_rating":3.09,"distinct_type":"Bottom","rt":null,"stimulus":"Stimuli_Rocks480/M_Gneiss_10.png","response":null,"trial_type":"image-keyboard-response","trial_index":28,"plugin_version":"2.1.0","time_elapsed":75802,"subject_id":"89799","group":"Group2","full_date":"2025-12-03T22:33:29.060Z","date":"2025-12-03","time":"22:33:29"},{"rt":null,"stimulus":"<p style=\"font-size: 50px; margin: 0; text-align: center;\">+</p>","response":null,"trial_type":"html-keyboard-response","trial_index":29,"plugin_version":"2.1.0","time_elapsed":76804,"subject_id":"89799","group":"Group2","full_date":"2025-12-03T22:33:29.060Z","date":"2025-12-03","time":"22:33:29"},{"task":"memory_phase","broad_category":"S","image_png":"S_Shale_02.png","image_id":466,"category_name":"Shale","category":30,"distinct_rating":2.9,"distinct_type":"Bottom","rt":null,"stimulus":"Stimuli_Rocks480/S_Shale_02.png","response":null,"trial_type":"image-keyboard-response","trial_index":30,"plugin_version":"2.1.0","time_elapsed":79307,"subject_id":"89799","group":"Group2","full_date":"2025-12-03T22:33:29.060Z","date":"2025-12-03","time":"22:33:29"},{"rt":null,"stimulus":"<p style=\"font-size: 50px; margin: 0; text-align: center;\">+</p>","response":null,"trial_type":"html-keyboard-response","trial_index":31,"plugin_version":"2.1.0","time_elapsed":80310,"subject_id":"89799","group":"Group2","full_date":"2025-12-03T22:33:29.060Z","date":"2025-12-03","time":"22:33:29"},{"task":"memory_phase","broad_category":"S","image_png":"S_Sandstone_11.png","image_id":459,"category_name":"Sandstone","category":29,"distinct_rating":1.82,"distinct_type":"Bottom","rt":null,"stimulus":"Stimuli_Rocks480/S_Sandstone_11.png","response":null,"trial_type":"image-keyboard-response","trial_index":32,"plugin_version":"2.1.0","time_elapsed":82813,"subject_id":"89799","group":"Group2","full_date":"2025-12-03T22:33:29.060Z","date":"2025-12-03","time":"22:33:29"},{"rt":null,"stimulus":"<p style=\"font-size: 50px; margin: 0; text-align: center;\">+</p>","response":null,"trial_type":"html-keyboard-response","trial_index":33,"plugin_version":"2.1.0","time_elapsed":83815,"subject_id":"89799","group":"Group2","full_date":"2025-12-03T22:33:29.060Z","date":"2025-12-03","time":"22:33:29"},{"task":"memory_phase","broad_category":"M","image_png":"M_Marble_02.png","image_id":226,"category_name":"Marble","category":15,"distinct_rating":3.2,"distinct_type":"Bottom","rt":null,"stimulus":"Stimuli_Rocks480/M_Marble_02.png","response":null,"trial_type":"image-keyboard-response","trial_index":34,"plugin_version":"2.1.0","time_elapsed":86319,"subject_id":"89799","group":"Group2","full_date":"2025-12-03T22:33:29.060Z","date":"2025-12-03","time":"22:33:29"},{"rt":null,"stimulus":"<p style=\"font-size: 50px; margin: 0; text-align: center;\">+</p>","response":null,"trial_type":"html-keyboard-response","trial_index":35,"plugin_version":"2.1.0","time_elapsed":87322,"subject_id":"89799","group":"Group2","full_date":"2025-12-03T22:33:29.060Z","date":"2025-12-03","time":"22:33:29"},{"task":"memory_phase","broad_category":"S","image_png":"S_Rock Salt_15.png","image_id":447,"category_name":"Rock Salt","category":28,"distinct_rating":7.79,"distinct_type":"Top","rt":null,"stimulus":"Stimuli_Rocks480/S_Rock Salt_15.png","response":null,"trial_type":"image-keyboard-response","trial_index":36,"plugin_version":"2.1.0","time_elapsed":89827,"subject_id":"89799","group":"Group2","full_date":"2025-12-03T22:33:29.060Z","date":"2025-12-03","time":"22:33:29"},{"rt":null,"stimulus":"<p style=\"font-size: 50px; margin: 0; text-align: center;\">+</p>","response":null,"trial_type":"html-keyboard-response","trial_index":37,"plugin_version":"2.1.0","time_elapsed":90830,"subject_id":"89799","group":"Group2","full_date":"2025-12-03T22:33:29.060Z","date":"2025-12-03","time":"22:33:29"},{"task":"memory_phase","broad_category":"I","image_png":"I_Gabbro_14.png","image_id":62,"category_name":"Gabbro","category":4,"distinct_rating":2.95,"distinct_type":"Bottom","rt":null,"stimulus":"Stimuli_Rocks480/I_Gabbro_14.png","response":null,"trial_type":"image-keyboard-response","trial_index":38,"plugin_version":"2.1.0","time_elapsed":93334,"subject_id":"89799","group":"Group2","full_date":"2025-12-03T22:33:29.060Z","date":"2025-12-03","time":"22:33:29"},{"rt":null,"stimulus":"<p style=\"font-size: 50px; margin: 0; text-align: center;\">+</p>","response":null,"trial_type":"html-keyboard-response","trial_index":39,"plugin_version":"2.1.0","time_elapsed":94337,"subject_id":"89799","group":"Group2","full_date":"2025-12-03T22:33:29.060Z","date":"2025-12-03","time":"22:33:29"},{"task":"memory_phase","broad_category":"I","image_png":"I_Diorite_10.png","image_id":42,"category_name":"Diorite","category":3,"distinct_rating":2.84,"distinct_type":"Bottom","rt":null,"stimulus":"Stimuli_Rocks480/I_Diorite_10.png","response":null,"trial_type":"image-keyboard-response","trial_index":40,"plugin_version":"2.1.0","time_elapsed":96840,"subject_id":"89799","group":"Group2","full_date":"2025-12-03T22:33:29.060Z","date":"2025-12-03","time":"22:33:29"},{"rt":null,"stimulus":"<p style=\"font-size: 50px; margin: 0; text-align: center;\">+</p>","response":null,"trial_type":"html-keyboard-response","trial_index":41,"plugin_version":"2.1.0","time_elapsed":97843,"subject_id":"89799","group":"Group2","full_date":"2025-12-03T22:33:29.060Z","date":"2025-12-03","time":"22:33:29"},{"task":"memory_phase","broad_category":"M","image_png":"M_Quartzite_15.png","image_id":287,"category_name":"Quartzite","category":18,"distinct_rating":2.19,"distinct_type":"Bottom","rt":null,"stimulus":"Stimuli_Rocks480/M_Quartzite_15.png","response":null,"trial_type":"image-keyboard-response","trial_index":42,"plugin_version":"2.1.0","time_elapsed":100347,"subject_id":"89799","group":"Group2","full_date":"2025-12-03T22:33:29.060Z","date":"2025-12-03","time":"22:33:29"},{"rt":null,"stimulus":"<p style=\"font-size: 50px; margin: 0; text-align: center;\">+</p>","response":null,"trial_type":"html-keyboard-response","trial_index":43,"plugin_version":"2.1.0","time_elapsed":101349,"subject_id":"89799","group":"Group2","full_date":"2025-12-03T22:33:29.060Z","date":"2025-12-03","time":"22:33:29"},{"task":"memory_phase","broad_category":"M","image_png":"M_Phyllite_05.png","image_id":261,"category_name":"Phyllite","category":17,"distinct_rating":2.14,"distinct_type":"Bottom","rt":null,"stimulus":"Stimuli_Rocks480/M_Phyllite_05.png","response":null,"trial_type":"image-keyboard-response","trial_index":44,"plugin_version":"2.1.0","time_elapsed":103854,"subject_id":"89799","group":"Group2","full_date":"2025-12-03T22:33:29.060Z","date":"2025-12-03","time":"22:33:29"},{"rt":null,"stimulus":"<p style=\"font-size: 50px; margin: 0; text-align: center;\">+</p>","response":null,"trial_type":"html-keyboard-response","trial_index":45,"plugin_version":"2.1.0","time_elapsed":104856,"subject_id":"89799","group":"Group2","full_date":"2025-12-03T22:33:29.060Z","date":"2025-12-03","time":"22:33:29"},{"task":"memory_phase","broad_category":"S","image_png":"S_Sandstone_04.png","image_id":452,"category_name":"Sandstone","category":29,"distinct_rating":1.8,"distinct_type":"Bottom","rt":null,"stimulus":"Stimuli_Rocks480/S_Sandstone_04.png","response":null,"trial_type":"image-keyboard-response","trial_index":46,"plugin_version":"2.1.0","time_elapsed":107360,"subject_id":"89799","group":"Group2","full_date":"2025-12-03T22:33:29.060Z","date":"2025-12-03","time":"22:33:29"},{"rt":null,"stimulus":"<p style=\"font-size: 50px; margin: 0; text-align: center;\">+</p>","response":null,"trial_type":"html-keyboard-response","trial_index":47,"plugin_version":"2.1.0","time_elapsed":108363,"subject_id":"89799","group":"Group2","full_date":"2025-12-03T22:33:29.060Z","date":"2025-12-03","time":"22:33:29"},{"task":"memory_phase","broad_category":"S","image_png":"S_Chert_13.png","image_id":365,"category_name":"Chert","category":23,"distinct_rating":6.57,"distinct_type":"Top","rt":null,"stimulus":"Stimuli_Rocks480/S_Chert_13.png","response":null,"trial_type":"image-keyboard-response","trial_index":48,"plugin_version":"2.1.0","time_elapsed":110866,"subject_id":"89799","group":"Group2","full_date":"2025-12-03T22:33:29.060Z","date":"2025-12-03","time":"22:33:29"},{"rt":null,"stimulus":"<p style=\"font-size: 50px; margin: 0; text-align: center;\">+</p>","response":null,"trial_type":"html-keyboard-response","trial_index":49,"plugin_version":"2.1.0","time_elapsed":111868,"subject_id":"89799","group":"Group2","full_date":"2025-12-03T22:33:29.060Z","date":"2025-12-03","time":"22:33:29"},{"task":"memory_phase","broad_category":"I","image_png":"I_Diorite_01.png","image_id":33,"category_name":"Diorite","category":3,"distinct_rating":2.97,"distinct_type":"Bottom","rt":null,"stimulus":"Stimuli_Rocks480/I_Diorite_01.png","response":null,"trial_type":"image-keyboard-response","trial_index":50,"plugin_version":"2.1.0","time_elapsed":114372,"subject_id":"89799","group":"Group2","full_date":"2025-12-03T22:33:29.060Z","date":"2025-12-03","time":"22:33:29"},{"rt":null,"stimulus":"<p style=\"font-size: 50px; margin: 0; text-align: center;\">+</p>","response":null,"trial_type":"html-keyboard-response","trial_index":51,"plugin_version":"2.1.0","time_elapsed":115374,"subject_id":"89799","group":"Group2","full_date":"2025-12-03T22:33:29.060Z","date":"2025-12-03","time":"22:33:29"},{"task":"memory_phase","broad_category":"I","image_png":"I_Basalt_10.png","image_id":26,"category_name":"Basalt","category":2,"distinct_rating":2.76,"distinct_type":"Bottom","rt":null,"stimulus":"Stimuli_Rocks480/I_Basalt_10.png","response":null,"trial_type":"image-keyboard-response","trial_index":52,"plugin_version":"2.1.0","time_elapsed":117877,"subject_id":"89799","group":"Group2","full_date":"2025-12-03T22:33:29.060Z","date":"2025-12-03","time":"22:33:29"},{"rt":null,"stimulus":"<p style=\"font-size: 50px; margin: 0; text-align: center;\">+</p>","response":null,"trial_type":"html-keyboard-response","trial_index":53,"plugin_version":"2.1.0","time_elapsed":118880,"subject_id":"89799","group":"Group2","full_date":"2025-12-03T22:33:29.060Z","date":"2025-12-03","time":"22:33:29"},{"task":"memory_phase","broad_category":"I","image_png":"I_Pumice_13.png","image_id":141,"category_name":"Pumice","category":9,"distinct_rating":3.12,"distinct_type":"Bottom","rt":null,"stimulus":"Stimuli_Rocks480/I_Pumice_13.png","response":null,"trial_type":"image-keyboard-response","trial_index":54,"plugin_version":"2.1.0","time_elapsed":121383,"subject_id":"89799","group":"Group2","full_date":"2025-12-03T22:33:29.060Z","date":"2025-12-03","time":"22:33:29"},{"rt":9114,"stimulus":"<p style=\"max-width: 760px; margin: auto; font-size: 35px; line-height: 1.5;\">Press SPACE to continue study phase</p>","response":" ","trial_type":"html-keyboard-response","trial_index":55,"plugin_version":"2.1.0","time_elapsed":130500,"subject_id":"89799","group":"Group2","full_date":"2025-12-03T22:33:29.060Z","date":"2025-12-03","time":"22:33:29"},{"rt":null,"stimulus":"<p style=\"font-size: 50px; margin: 0; text-align: center;\">+</p>","response":null,"trial_type":"html-keyboard-response","trial_index":56,"plugin_version":"2.1.0","time_elapsed":131502,"subject_id":"89799","group":"Group2","full_date":"2025-12-03T22:33:29.060Z","date":"2025-12-03","time":"22:33:29"},{"task":"memory_phase","broad_category":"I","image_png":"I_Pegmatite_03.png","image_id":99,"category_name":"Pegmatite","category":7,"distinct_rating":7.24,"distinct_type":"Top","rt":null,"stimulus":"Stimuli_Rocks480/I_Pegmatite_03.png","response":null,"trial_type":"image-keyboard-response","trial_index":57,"plugin_version":"2.1.0","time_elapsed":134007,"subject_id":"89799","group":"Group2","full_date":"2025-12-03T22:33:29.060Z","date":"2025-12-03","time":"22:33:29"},{"rt":null,"stimulus":"<p style=\"font-size: 50px; margin: 0; text-align: center;\">+</p>","response":null,"trial_type":"html-keyboard-response","trial_index":58,"plugin_version":"2.1.0","time_elapsed":135010,"subject_id":"89799","group":"Group2","full_date":"2025-12-03T22:33:29.060Z","date":"2025-12-03","time":"22:33:29"},{"task":"memory_phase","broad_category":"I","image_png":"I_Pumice_01.png","image_id":129,"category_name":"Pumice","category":9,"distinct_rating":3.25,"distinct_type":"Bottom","rt":null,"stimulus":"Stimuli_Rocks480/I_Pumice_01.png","response":null,"trial_type":"image-keyboard-response","trial_index":59,"plugin_version":"2.1.0","time_elapsed":137513,"subject_id":"89799","group":"Group2","full_date":"2025-12-03T22:33:29.060Z","date":"2025-12-03","time":"22:33:29"},{"rt":null,"stimulus":"<p style=\"font-size: 50px; margin: 0; text-align: center;\">+</p>","response":null,"trial_type":"html-keyboard-response","trial_index":60,"plugin_version":"2.1.0","time_elapsed":138516,"subject_id":"89799","group":"Group2","full_date":"2025-12-03T22:33:29.060Z","date":"2025-12-03","time":"22:33:29"},{"task":"memory_phase","broad_category":"M","image_png":"M_Slate_14.png","image_id":318,"category_name":"Slate","category":20,"distinct_rating":2.58,"distinct_type":"Bottom","rt":null,"stimulus":"Stimuli_Rocks480/M_Slate_14.png","response":null,"trial_type":"image-keyboard-response","trial_index":61,"plugin_version":"2.1.0","time_elapsed":141019,"subject_id":"89799","group":"Group2","full_date":"2025-12-03T22:33:29.060Z","date":"2025-12-03","time":"22:33:29"},{"rt":null,"stimulus":"<p style=\"font-size: 50px; margin: 0; text-align: center;\">+</p>","response":null,"trial_type":"html-keyboard-response","trial_index":62,"plugin_version":"2.1.0","time_elapsed":142022,"subject_id":"89799","group":"Group2","full_date":"2025-12-03T22:33:29.060Z","date":"2025-12-03","time":"22:33:29"},{"task":"memory_phase","broad_category":"M","image_png":"M_Slate_10.png","image_id":314,"category_name":"Slate","category":20,"distinct_rating":1.94,"distinct_type":"Bottom","rt":null,"stimulus":"Stimuli_Rocks480/M_Slate_10.png","response":null,"trial_type":"image-keyboard-response","trial_index":63,"plugin_version":"2.1.0","time_elapsed":144526,"subject_id":"89799","group":"Group2","full_date":"2025-12-03T22:33:29.060Z","date":"2025-12-03","time":"22:33:29"},{"rt":null,"stimulus":"<p style=\"font-size: 50px; margin: 0; text-align: center;\">+</p>","response":null,"trial_type":"html-keyboard-response","trial_index":64,"plugin_version":"2.1.0","time_elapsed":145528,"subject_id":"89799","group":"Group2","full_date":"2025-12-03T22:33:29.060Z","date":"2025-12-03","time":"22:33:29"},{"task":"memory_phase","broad_category":"I","image_png":"I_Andesite_03.png","image_id":3,"category_name":"Andesite","category":1,"distinct_rating":3.17,"distinct_type":"Bottom","rt":null,"stimulus":"Stimuli_Rocks480/I_Andesite_03.png","response":null,"trial_type":"image-keyboard-response","trial_index":65,"plugin_version":"2.1.0","time_elapsed":148032,"subject_id":"89799","group":"Group2","full_date":"2025-12-03T22:33:29.060Z","date":"2025-12-03","time":"22:33:29"},{"rt":null,"stimulus":"<p style=\"font-size: 50px; margin: 0; text-align: center;\">+</p>","response":null,"trial_type":"html-keyboard-response","trial_index":66,"plugin_version":"2.1.0","time_elapsed":149035,"subject_id":"89799","group":"Group2","full_date":"2025-12-03T22:33:29.060Z","date":"2025-12-03","time":"22:33:29"},{"task":"memory_phase","broad_category":"M","image_png":"M_Slate_04.png","image_id":308,"category_name":"Slate","category":20,"distinct_rating":2.2,"distinct_type":"Bottom","rt":null,"stimulus":"Stimuli_Rocks480/M_Slate_04.png","response":null,"trial_type":"image-keyboard-response","trial_index":67,"plugin_version":"2.1.0","time_elapsed":151538,"subject_id":"89799","group":"Group2","full_date":"2025-12-03T22:33:29.060Z","date":"2025-12-03","time":"22:33:29"},{"rt":null,"stimulus":"<p style=\"font-size: 50px; margin: 0; text-align: center;\">+</p>","response":null,"trial_type":"html-keyboard-response","trial_index":68,"plugin_version":"2.1.0","time_elapsed":152541,"subject_id":"89799","group":"Group2","full_date":"2025-12-03T22:33:29.060Z","date":"2025-12-03","time":"22:33:29"},{"task":"memory_phase","broad_category":"I","image_png":"I_Rhyolite_08.png","image_id":152,"category_name":"Rhyolite","category":10,"distinct_rating":1.38,"distinct_type":"Bottom","rt":null,"stimulus":"Stimuli_Rocks480/I_Rhyolite_08.png","response":null,"trial_type":"image-keyboard-response","trial_index":69,"plugin_version":"2.1.0","time_elapsed":155044,"subject_id":"89799","group":"Group2","full_date":"2025-12-03T22:33:29.060Z","date":"2025-12-03","time":"22:33:29"},{"rt":null,"stimulus":"<p style=\"font-size: 50px; margin: 0; text-align: center;\">+</p>","response":null,"trial_type":"html-keyboard-response","trial_index":70,"plugin_version":"2.1.0","time_elapsed":156047,"subject_id":"89799","group":"Group2","full_date":"2025-12-03T22:33:29.060Z","date":"2025-12-03","time":"22:33:29"},{"task":"memory_phase","broad_category":"M","image_png":"M_Marble_14.png","image_id":238,"category_name":"Marble","category":15,"distinct_rating":3.31,"distinct_type":"Bottom","rt":null,"stimulus":"Stimuli_Rocks480/M_Marble_14.png","response":null,"trial_type":"image-keyboard-response","trial_index":71,"plugin_version":"2.1.0","time_elapsed":158551,"subject_id":"89799","group":"Group2","full_date":"2025-12-03T22:33:29.060Z","date":"2025-12-03","time":"22:33:29"},{"rt":null,"stimulus":"<p style=\"font-size: 50px; margin: 0; text-align: center;\">+</p>","response":null,"trial_type":"html-keyboard-response","trial_index":72,"plugin_version":"2.1.0","time_elapsed":159554,"subject_id":"89799","group":"Group2","full_date":"2025-12-03T22:33:29.060Z","date":"2025-12-03","time":"22:33:29"},{"task":"memory_phase","broad_category":"S","image_png":"S_Dolomite_07.png","image_id":391,"category_name":"Dolomite","category":25,"distinct_rating":1.73,"distinct_type":"Bottom","rt":null,"stimulus":"Stimuli_Rocks480/S_Dolomite_07.png","response":null,"trial_type":"image-keyboard-response","trial_index":73,"plugin_version":"2.1.0","time_elapsed":162058,"subject_id":"89799","group":"Group2","full_date":"2025-12-03T22:33:29.060Z","date":"2025-12-03","time":"22:33:29"},{"rt":null,"stimulus":"<p style=\"font-size: 50px; margin: 0; text-align: center;\">+</p>","response":null,"trial_type":"html-keyboard-response","trial_index":74,"plugin_version":"2.1.0","time_elapsed":163061,"subject_id":"89799","group":"Group2","full_date":"2025-12-03T22:33:29.060Z","date":"2025-12-03","time":"22:33:29"},{"task":"memory_phase","broad_category":"I","image_png":"I_Diorite_15.png","image_id":47,"category_name":"Diorite","category":3,"distinct_rating":3.05,"distinct_type":"Bottom","rt":null,"stimulus":"Stimuli_Rocks480/I_Diorite_15.png","response":null,"trial_type":"image-keyboard-response","trial_index":75,"plugin_version":"2.1.0","time_elapsed":165564,"subject_id":"89799","group":"Group2","full_date":"2025-12-03T22:33:29.060Z","date":"2025-12-03","time":"22:33:29"},{"rt":null,"stimulus":"<p style=\"font-size: 50px; margin: 0; text-align: center;\">+</p>","response":null,"trial_type":"html-keyboard-response","trial_index":76,"plugin_version":"2.1.0","time_elapsed":166567,"subject_id":"89799","group":"Group2","full_date":"2025-12-03T22:33:29.060Z","date":"2025-12-03","time":"22:33:29"},{"task":"memory_phase","broad_category":"I","image_png":"I_Peridotite_13.png","image_id":125,"category_name":"Peridotite","category":8,"distinct_rating":7.28,"distinct_type":"Top","rt":null,"stimulus":"Stimuli_Rocks480/I_Peridotite_13.png","response":null,"trial_type":"image-keyboard-response","trial_index":77,"plugin_version":"2.1.0","time_elapsed":169070,"subject_id":"89799","group":"Group2","full_date":"2025-12-03T22:33:29.060Z","date":"2025-12-03","time":"22:33:29"},{"rt":null,"stimulus":"<p style=\"font-size: 50px; margin: 0; text-align: center;\">+</p>","response":null,"trial_type":"html-keyboard-response","trial_index":78,"plugin_version":"2.1.0","time_elapsed":170073,"subject_id":"89799","group":"Group2","full_date":"2025-12-03T22:33:29.060Z","date":"2025-12-03","time":"22:33:29"},{"task":"memory_phase","broad_category":"M","image_png":"M_Marble_03.png","image_id":227,"category_name":"Marble","category":15,"distinct_rating":2.67,"distinct_type":"Bottom","rt":null,"stimulus":"Stimuli_Rocks480/M_Marble_03.png","response":null,"trial_type":"image-keyboard-response","trial_index":79,"plugin_version":"2.1.0","time_elapsed":172577,"subject_id":"89799","group":"Group2","full_date":"2025-12-03T22:33:29.060Z","date":"2025-12-03","time":"22:33:29"},{"rt":null,"stimulus":"<p style=\"font-size: 50px; margin: 0; text-align: center;\">+</p>","response":null,"trial_type":"html-keyboard-response","trial_index":80,"plugin_version":"2.1.0","time_elapsed":173579,"subject_id":"89799","group":"Group2","full_date":"2025-12-03T22:33:29.060Z","date":"2025-12-03","time":"22:33:29"},{"task":"memory_phase","broad_category":"I","image_png":"I_Pegmatite_11.png","image_id":107,"category_name":"Pegmatite","category":7,"distinct_rating":7.11,"distinct_type":"Top","rt":null,"stimulus":"Stimuli_Rocks480/I_Pegmatite_11.png","response":null,"trial_type":"image-keyboard-response","trial_index":81,"plugin_version":"2.1.0","time_elapsed":176083,"subject_id":"89799","group":"Group2","full_date":"2025-12-03T22:33:29.060Z","date":"2025-12-03","time":"22:33:29"},{"rt":null,"stimulus":"<p style=\"font-size: 50px; margin: 0; text-align: center;\">+</p>","response":null,"trial_type":"html-keyboard-response","trial_index":82,"plugin_version":"2.1.0","time_elapsed":177085,"subject_id":"89799","group":"Group2","full_date":"2025-12-03T22:33:29.060Z","date":"2025-12-03","time":"22:33:29"},{"task":"memory_phase","broad_category":"S","image_png":"S_Sandstone_08.png","image_id":456,"category_name":"Sandstone","category":29,"distinct_rating":1.5,"distinct_type":"Bottom","rt":null,"stimulus":"Stimuli_Rocks480/S_Sandstone_08.png","response":null,"trial_type":"image-keyboard-response","trial_index":83,"plugin_version":"2.1.0","time_elapsed":179590,"subject_id":"89799","group":"Group2","full_date":"2025-12-03T22:33:29.060Z","date":"2025-12-03","time":"22:33:29"},{"rt":null,"stimulus":"<p style=\"font-size: 50px; margin: 0; text-align: center;\">+</p>","response":null,"trial_type":"html-keyboard-response","trial_index":84,"plugin_version":"2.1.0","time_elapsed":180593,"subject_id":"89799","group":"Group2","full_date":"2025-12-03T22:33:29.060Z","date":"2025-12-03","time":"22:33:29"},{"task":"memory_phase","broad_category":"S","image_png":"S_Conglomerate_14.png","image_id":382,"category_name":"Conglomerate","category":24,"distinct_rating":6.86,"distinct_type":"Top","rt":null,"stimulus":"Stimuli_Rocks480/S_Conglomerate_14.png","response":null,"trial_type":"image-keyboard-response","trial_index":85,"plugin_version":"2.1.0","time_elapsed":183097,"subject_id":"89799","group":"Group2","full_date":"2025-12-03T22:33:29.060Z","date":"2025-12-03","time":"22:33:29"},{"rt":null,"stimulus":"<p style=\"font-size: 50px; margin: 0; text-align: center;\">+</p>","response":null,"trial_type":"html-keyboard-response","trial_index":86,"plugin_version":"2.1.0","time_elapsed":184100,"subject_id":"89799","group":"Group2","full_date":"2025-12-03T22:33:29.060Z","date":"2025-12-03","time":"22:33:29"},{"task":"memory_phase","broad_category":"M","image_png":"M_Gneiss_14.png","image_id":206,"category_name":"Gneiss","category":13,"distinct_rating":3.41,"distinct_type":"Bottom","rt":null,"stimulus":"Stimuli_Rocks480/M_Gneiss_14.png","response":null,"trial_type":"image-keyboard-response","trial_index":87,"plugin_version":"2.1.0","time_elapsed":186603,"subject_id":"89799","group":"Group2","full_date":"2025-12-03T22:33:29.060Z","date":"2025-12-03","time":"22:33:29"},{"rt":null,"stimulus":"<p style=\"font-size: 50px; margin: 0; text-align: center;\">+</p>","response":null,"trial_type":"html-keyboard-response","trial_index":88,"plugin_version":"2.1.0","time_elapsed":187607,"subject_id":"89799","group":"Group2","full_date":"2025-12-03T22:33:29.060Z","date":"2025-12-03","time":"22:33:29"},{"task":"memory_phase","broad_category":"S","image_png":"S_Dolomite_16.png","image_id":400,"category_name":"Dolomite","category":25,"distinct_rating":1.71,"distinct_type":"Bottom","rt":null,"stimulus":"Stimuli_Rocks480/S_Dolomite_16.png","response":null,"trial_type":"image-keyboard-response","trial_index":89,"plugin_version":"2.1.0","time_elapsed":190111,"subject_id":"89799","group":"Group2","full_date":"2025-12-03T22:33:29.060Z","date":"2025-12-03","time":"22:33:29"},{"rt":null,"stimulus":"<p style=\"font-size: 50px; margin: 0; text-align: center;\">+</p>","response":null,"trial_type":"html-keyboard-response","trial_index":90,"plugin_version":"2.1.0","time_elapsed":191113,"subject_id":"89799","group":"Group2","full_date":"2025-12-03T22:33:29.060Z","date":"2025-12-03","time":"22:33:29"},{"task":"memory_phase","broad_category":"I","image_png":"I_Gabbro_02.png","image_id":50,"category_name":"Gabbro","category":4,"distinct_rating":2.73,"distinct_type":"Bottom","rt":null,"stimulus":"Stimuli_Rocks480/I_Gabbro_02.png","response":null,"trial_type":"image-keyboard-response","trial_index":91,"plugin_version":"2.1.0","time_elapsed":193617,"subject_id":"89799","group":"Group2","full_date":"2025-12-03T22:33:29.060Z","date":"2025-12-03","time":"22:33:29"},{"rt":null,"stimulus":"<p style=\"font-size: 50px; margin: 0; text-align: center;\">+</p>","response":null,"trial_type":"html-keyboard-response","trial_index":92,"plugin_version":"2.1.0","time_elapsed":194620,"subject_id":"89799","group":"Group2","full_date":"2025-12-03T22:33:29.060Z","date":"2025-12-03","time":"22:33:29"},{"task":"memory_phase","broad_category":"S","image_png":"S_Rock Salt_13.png","image_id":445,"category_name":"Rock Salt","category":28,"distinct_rating":7.58,"distinct_type":"Top","rt":null,"stimulus":"Stimuli_Rocks480/S_Rock Salt_13.png","response":null,"trial_type":"image-keyboard-response","trial_index":93,"plugin_version":"2.1.0","time_elapsed":197124,"subject_id":"89799","group":"Group2","full_date":"2025-12-03T22:33:29.060Z","date":"2025-12-03","time":"22:33:29"},{"rt":null,"stimulus":"<p style=\"font-size: 50px; margin: 0; text-align: center;\">+</p>","response":null,"trial_type":"html-keyboard-response","trial_index":94,"plugin_version":"2.1.0","time_elapsed":198127,"subject_id":"89799","group":"Group2","full_date":"2025-12-03T22:33:29.060Z","date":"2025-12-03","time":"22:33:29"},{"task":"memory_phase","broad_category":"I","image_png":"I_Andesite_04.png","image_id":4,"category_name":"Andesite","category":1,"distinct_rating":3.18,"distinct_type":"Bottom","rt":null,"stimulus":"Stimuli_Rocks480/I_Andesite_04.png","response":null,"trial_type":"image-keyboard-response","trial_index":95,"plugin_version":"2.1.0","time_elapsed":200631,"subject_id":"89799","group":"Group2","full_date":"2025-12-03T22:33:29.060Z","date":"2025-12-03","time":"22:33:29"},{"rt":null,"stimulus":"<p style=\"font-size: 50px; margin: 0; text-align: center;\">+</p>","response":null,"trial_type":"html-keyboard-response","trial_index":96,"plugin_version":"2.1.0","time_elapsed":201634,"subject_id":"89799","group":"Group2","full_date":"2025-12-03T22:33:29.060Z","date":"2025-12-03","time":"22:33:29"},{"task":"memory_phase","broad_category":"I","image_png":"I_Basalt_13.png","image_id":29,"category_name":"Basalt","category":2,"distinct_rating":2.68,"distinct_type":"Bottom","rt":null,"stimulus":"Stimuli_Rocks480/I_Basalt_13.png","response":null,"trial_type":"image-keyboard-response","trial_index":97,"plugin_version":"2.1.0","time_elapsed":204138,"subject_id":"89799","group":"Group2","full_date":"2025-12-03T22:33:29.060Z","date":"2025-12-03","time":"22:33:29"},{"rt":null,"stimulus":"<p style=\"font-size: 50px; margin: 0; text-align: center;\">+</p>","response":null,"trial_type":"html-keyboard-response","trial_index":98,"plugin_version":"2.1.0","time_elapsed":205141,"subject_id":"89799","group":"Group2","full_date":"2025-12-03T22:33:29.060Z","date":"2025-12-03","time":"22:33:29"},{"task":"memory_phase","broad_category":"I","image_png":"I_Andesite_09.png","image_id":9,"category_name":"Andesite","category":1,"distinct_rating":2.49,"distinct_type":"Bottom","rt":null,"stimulus":"Stimuli_Rocks480/I_Andesite_09.png","response":null,"trial_type":"image-keyboard-response","trial_index":99,"plugin_version":"2.1.0","time_elapsed":207644,"subject_id":"89799","group":"Group2","full_date":"2025-12-03T22:33:29.060Z","date":"2025-12-03","time":"22:33:29"},{"rt":null,"stimulus":"<p style=\"font-size: 50px; margin: 0; text-align: center;\">+</p>","response":null,"trial_type":"html-keyboard-response","trial_index":100,"plugin_version":"2.1.0","time_elapsed":208647,"subject_id":"89799","group":"Group2","full_date":"2025-12-03T22:33:29.060Z","date":"2025-12-03","time":"22:33:29"},{"task":"memory_phase","broad_category":"M","image_png":"M_Gneiss_15.png","image_id":207,"category_name":"Gneiss","category":13,"distinct_rating":3.11,"distinct_type":"Bottom","rt":null,"stimulus":"Stimuli_Rocks480/M_Gneiss_15.png","response":null,"trial_type":"image-keyboard-response","trial_index":101,"plugin_version":"2.1.0","time_elapsed":211151,"subject_id":"89799","group":"Group2","full_date":"2025-12-03T22:33:29.060Z","date":"2025-12-03","time":"22:33:29"},{"rt":null,"stimulus":"<p style=\"font-size: 50px; margin: 0; text-align: center;\">+</p>","response":null,"trial_type":"html-keyboard-response","trial_index":102,"plugin_version":"2.1.0","time_elapsed":212153,"subject_id":"89799","group":"Group2","full_date":"2025-12-03T22:33:29.060Z","date":"2025-12-03","time":"22:33:29"},{"task":"memory_phase","broad_category":"S","image_png":"S_Shale_03.png","image_id":467,"category_name":"Shale","category":30,"distinct_rating":1.95,"distinct_type":"Bottom","rt":null,"stimulus":"Stimuli_Rocks480/S_Shale_03.png","response":null,"trial_type":"image-keyboard-response","trial_index":103,"plugin_version":"2.1.0","time_elapsed":214658,"subject_id":"89799","group":"Group2","full_date":"2025-12-03T22:33:29.060Z","date":"2025-12-03","time":"22:33:29"},{"rt":null,"stimulus":"<p style=\"font-size: 50px; margin: 0; text-align: center;\">+</p>","response":null,"trial_type":"html-keyboard-response","trial_index":104,"plugin_version":"2.1.0","time_elapsed":215660,"subject_id":"89799","group":"Group2","full_date":"2025-12-03T22:33:29.060Z","date":"2025-12-03","time":"22:33:29"},{"task":"memory_phase","broad_category":"M","image_png":"M_Quartzite_12.png","image_id":284,"category_name":"Quartzite","category":18,"distinct_rating":1.92,"distinct_type":"Bottom","rt":null,"stimulus":"Stimuli_Rocks480/M_Quartzite_12.png","response":null,"trial_type":"image-keyboard-response","trial_index":105,"plugin_version":"2.1.0","time_elapsed":218164,"subject_id":"89799","group":"Group2","full_date":"2025-12-03T22:33:29.060Z","date":"2025-12-03","time":"22:33:29"},{"rt":3671,"stimulus":"<p style=\"max-width: 760px; margin: auto; font-size: 35px; line-height: 1.5;\">You have completed 1 study phase. Now, we'll show you all the images again 2 more times.<br><br>Press SPACE to continue</p>","response":" ","trial_type":"html-keyboard-response","trial_index":106,"plugin_version":"2.1.0","time_elapsed":221836,"subject_id":"89799","group":"Group2","full_date":"2025-12-03T22:33:29.060Z","date":"2025-12-03","time":"22:33:29"},{"rt":null,"stimulus":"<p style=\"font-size: 50px; margin: 0; text-align: center;\">+</p>","response":null,"trial_type":"html-keyboard-response","trial_index":107,"plugin_version":"2.1.0","time_elapsed":222838,"subject_id":"89799","group":"Group2","full_date":"2025-12-03T22:33:29.060Z","date":"2025-12-03","time":"22:33:29"},{"task":"memory_phase","broad_category":"I","image_png":"I_Gabbro_12.png","image_id":60,"category_name":"Gabbro","category":4,"distinct_rating":2.6,"distinct_type":"Bottom","rt":null,"stimulus":"Stimuli_Rocks480/I_Gabbro_12.png","response":null,"trial_type":"image-keyboard-response","trial_index":108,"plugin_version":"2.1.0","time_elapsed":225342,"subject_id":"89799","group":"Group2","full_date":"2025-12-03T22:33:29.060Z","date":"2025-12-03","time":"22:33:29"},{"rt":null,"stimulus":"<p style=\"font-size: 50px; margin: 0; text-align: center;\">+</p>","response":null,"trial_type":"html-keyboard-response","trial_index":109,"plugin_version":"2.1.0","time_elapsed":226345,"subject_id":"89799","group":"Group2","full_date":"2025-12-03T22:33:29.060Z","date":"2025-12-03","time":"22:33:29"},{"task":"memory_phase","broad_category":"S","image_png":"S_Shale_07.png","image_id":471,"category_name":"Shale","category":30,"distinct_rating":2.73,"distinct_type":"Bottom","rt":null,"stimulus":"Stimuli_Rocks480/S_Shale_07.png","response":null,"trial_type":"image-keyboard-response","trial_index":110,"plugin_version":"2.1.0","time_elapsed":228849,"subject_id":"89799","group":"Group2","full_date":"2025-12-03T22:33:29.060Z","date":"2025-12-03","time":"22:33:29"},{"rt":null,"stimulus":"<p style=\"font-size: 50px; margin: 0; text-align: center;\">+</p>","response":null,"trial_type":"html-keyboard-response","trial_index":111,"plugin_version":"2.1.0","time_elapsed":229852,"subject_id":"89799","group":"Group2","full_date":"2025-12-03T22:33:29.060Z","date":"2025-12-03","time":"22:33:29"},{"task":"memory_phase","broad_category":"I","image_png":"I_Pumice_14.png","image_id":142,"category_name":"Pumice","category":9,"distinct_rating":3.22,"distinct_type":"Bottom","rt":null,"stimulus":"Stimuli_Rocks480/I_Pumice_14.png","response":null,"trial_type":"image-keyboard-response","trial_index":112,"plugin_version":"2.1.0","time_elapsed":232356,"subject_id":"89799","group":"Group2","full_date":"2025-12-03T22:33:29.060Z","date":"2025-12-03","time":"22:33:29"},{"rt":null,"stimulus":"<p style=\"font-size: 50px; margin: 0; text-align: center;\">+</p>","response":null,"trial_type":"html-keyboard-response","trial_index":113,"plugin_version":"2.1.0","time_elapsed":233359,"subject_id":"89799","group":"Group2","full_date":"2025-12-03T22:33:29.060Z","date":"2025-12-03","time":"22:33:29"},{"task":"memory_phase","broad_category":"I","image_png":"I_Gabbro_14.png","image_id":62,"category_name":"Gabbro","category":4,"distinct_rating":2.95,"distinct_type":"Bottom","rt":null,"stimulus":"Stimuli_Rocks480/I_Gabbro_14.png","response":null,"trial_type":"image-keyboard-response","trial_index":114,"plugin_version":"2.1.0","time_elapsed":235862,"subject_id":"89799","group":"Group2","full_date":"2025-12-03T22:33:29.060Z","date":"2025-12-03","time":"22:33:29"},{"rt":null,"stimulus":"<p style=\"font-size: 50px; margin: 0; text-align: center;\">+</p>","response":null,"trial_type":"html-keyboard-response","trial_index":115,"plugin_version":"2.1.0","time_elapsed":236865,"subject_id":"89799","group":"Group2","full_date":"2025-12-03T22:33:29.060Z","date":"2025-12-03","time":"22:33:29"},{"task":"memory_phase","broad_category":"S","image_png":"S_Chert_13.png","image_id":365,"category_name":"Chert","category":23,"distinct_rating":6.57,"distinct_type":"Top","rt":null,"stimulus":"Stimuli_Rocks480/S_Chert_13.png","response":null,"trial_type":"image-keyboard-response","trial_index":116,"plugin_version":"2.1.0","time_elapsed":239369,"subject_id":"89799","group":"Group2","full_date":"2025-12-03T22:33:29.060Z","date":"2025-12-03","time":"22:33:29"},{"rt":null,"stimulus":"<p style=\"font-size: 50px; margin: 0; text-align: center;\">+</p>","response":null,"trial_type":"html-keyboard-response","trial_index":117,"plugin_version":"2.1.0","time_elapsed":240372,"subject_id":"89799","group":"Group2","full_date":"2025-12-03T22:33:29.060Z","date":"2025-12-03","time":"22:33:29"},{"task":"memory_phase","broad_category":"M","image_png":"M_Marble_02.png","image_id":226,"category_name":"Marble","category":15,"distinct_rating":3.2,"distinct_type":"Bottom","rt":null,"stimulus":"Stimuli_Rocks480/M_Marble_02.png","response":null,"trial_type":"image-keyboard-response","trial_index":118,"plugin_version":"2.1.0","time_elapsed":242876,"subject_id":"89799","group":"Group2","full_date":"2025-12-03T22:33:29.060Z","date":"2025-12-03","time":"22:33:29"},{"rt":null,"stimulus":"<p style=\"font-size: 50px; margin: 0; text-align: center;\">+</p>","response":null,"trial_type":"html-keyboard-response","trial_index":119,"plugin_version":"2.1.0","time_elapsed":243879,"subject_id":"89799","group":"Group2","full_date":"2025-12-03T22:33:29.060Z","date":"2025-12-03","time":"22:33:29"},{"task":"memory_phase","broad_category":"M","image_png":"M_Marble_14.png","image_id":238,"category_name":"Marble","category":15,"distinct_rating":3.31,"distinct_type":"Bottom","rt":null,"stimulus":"Stimuli_Rocks480/M_Marble_14.png","response":null,"trial_type":"image-keyboard-response","trial_index":120,"plugin_version":"2.1.0","time_elapsed":246383,"subject_id":"89799","group":"Group2","full_date":"2025-12-03T22:33:29.060Z","date":"2025-12-03","time":"22:33:29"},{"rt":null,"stimulus":"<p style=\"font-size: 50px; margin: 0; text-align: center;\">+</p>","response":null,"trial_type":"html-keyboard-response","trial_index":121,"plugin_version":"2.1.0","time_elapsed":247385,"subject_id":"89799","group":"Group2","full_date":"2025-12-03T22:33:29.060Z","date":"2025-12-03","time":"22:33:29"},{"task":"memory_phase","broad_category":"M","image_png":"M_Phyllite_02.png","image_id":258,"category_name":"Phyllite","category":17,"distinct_rating":2.89,"distinct_type":"Bottom","rt":null,"stimulus":"Stimuli_Rocks480/M_Phyllite_02.png","response":null,"trial_type":"image-keyboard-response","trial_index":122,"plugin_version":"2.1.0","time_elapsed":249889,"subject_id":"89799","group":"Group2","full_date":"2025-12-03T22:33:29.060Z","date":"2025-12-03","time":"22:33:29"},{"rt":null,"stimulus":"<p style=\"font-size: 50px; margin: 0; text-align: center;\">+</p>","response":null,"trial_type":"html-keyboard-response","trial_index":123,"plugin_version":"2.1.0","time_elapsed":250892,"subject_id":"89799","group":"Group2","full_date":"2025-12-03T22:33:29.060Z","date":"2025-12-03","time":"22:33:29"},{"task":"memory_phase","broad_category":"I","image_png":"I_Pegmatite_11.png","image_id":107,"category_name":"Pegmatite","category":7,"distinct_rating":7.11,"distinct_type":"Top","rt":null,"stimulus":"Stimuli_Rocks480/I_Pegmatite_11.png","response":null,"trial_type":"image-keyboard-response","trial_index":124,"plugin_version":"2.1.0","time_elapsed":253400,"subject_id":"89799","group":"Group2","full_date":"2025-12-03T22:33:29.060Z","date":"2025-12-03","time":"22:33:29"},{"rt":null,"stimulus":"<p style=\"font-size: 50px; margin: 0; text-align: center;\">+</p>","response":null,"trial_type":"html-keyboard-response","trial_index":125,"plugin_version":"2.1.0","time_elapsed":254402,"subject_id":"89799","group":"Group2","full_date":"2025-12-03T22:33:29.060Z","date":"2025-12-03","time":"22:33:29"},{"task":"memory_phase","broad_category":"I","image_png":"I_Diorite_10.png","image_id":42,"category_name":"Diorite","category":3,"distinct_rating":2.84,"distinct_type":"Bottom","rt":null,"stimulus":"Stimuli_Rocks480/I_Diorite_10.png","response":null,"trial_type":"image-keyboard-response","trial_index":126,"plugin_version":"2.1.0","time_elapsed":256907,"subject_id":"89799","group":"Group2","full_date":"2025-12-03T22:33:29.060Z","date":"2025-12-03","time":"22:33:29"},{"rt":null,"stimulus":"<p style=\"font-size: 50px; margin: 0; text-align: center;\">+</p>","response":null,"trial_type":"html-keyboard-response","trial_index":127,"plugin_version":"2.1.0","time_elapsed":257909,"subject_id":"89799","group":"Group2","full_date":"2025-12-03T22:33:29.060Z","date":"2025-12-03","time":"22:33:29"},{"task":"memory_phase","broad_category":"I","image_png":"I_Rhyolite_05.png","image_id":149,"category_name":"Rhyolite","category":10,"distinct_rating":3.02,"distinct_type":"Bottom","rt":null,"stimulus":"Stimuli_Rocks480/I_Rhyolite_05.png","response":null,"trial_type":"image-keyboard-response","trial_index":128,"plugin_version":"2.1.0","time_elapsed":260412,"subject_id":"89799","group":"Group2","full_date":"2025-12-03T22:33:29.060Z","date":"2025-12-03","time":"22:33:29"},{"rt":null,"stimulus":"<p style=\"font-size: 50px; margin: 0; text-align: center;\">+</p>","response":null,"trial_type":"html-keyboard-response","trial_index":129,"plugin_version":"2.1.0","time_elapsed":261415,"subject_id":"89799","group":"Group2","full_date":"2025-12-03T22:33:29.060Z","date":"2025-12-03","time":"22:33:29"},{"task":"memory_phase","broad_category":"S","image_png":"S_Dolomite_01.png","image_id":385,"category_name":"Dolomite","category":25,"distinct_rating":1.43,"distinct_type":"Bottom","rt":null,"stimulus":"Stimuli_Rocks480/S_Dolomite_01.png","response":null,"trial_type":"image-keyboard-response","trial_index":130,"plugin_version":"2.1.0","time_elapsed":263919,"subject_id":"89799","group":"Group2","full_date":"2025-12-03T22:33:29.060Z","date":"2025-12-03","time":"22:33:29"},{"rt":null,"stimulus":"<p style=\"font-size: 50px; margin: 0; text-align: center;\">+</p>","response":null,"trial_type":"html-keyboard-response","trial_index":131,"plugin_version":"2.1.0","time_elapsed":264921,"subject_id":"89799","group":"Group2","full_date":"2025-12-03T22:33:29.060Z","date":"2025-12-03","time":"22:33:29"},{"task":"memory_phase","broad_category":"M","image_png":"M_Slate_10.png","image_id":314,"category_name":"Slate","category":20,"distinct_rating":1.94,"distinct_type":"Bottom","rt":null,"stimulus":"Stimuli_Rocks480/M_Slate_10.png","response":null,"trial_type":"image-keyboard-response","trial_index":132,"plugin_version":"2.1.0","time_elapsed":267425,"subject_id":"89799","group":"Group2","full_date":"2025-12-03T22:33:29.060Z","date":"2025-12-03","time":"22:33:29"},{"rt":null,"stimulus":"<p style=\"font-size: 50px; margin: 0; text-align: center;\">+</p>","response":null,"trial_type":"html-keyboard-response","trial_index":133,"plugin_version":"2.1.0","time_elapsed":268428,"subject_id":"89799","group":"Group2","full_date":"2025-12-03T22:33:29.060Z","date":"2025-12-03","time":"22:33:29"},{"task":"memory_phase","broad_category":"M","image_png":"M_Quartzite_15.png","image_id":287,"category_name":"Quartzite","category":18,"distinct_rating":2.19,"distinct_type":"Bottom","rt":null,"stimulus":"Stimuli_Rocks480/M_Quartzite_15.png","response":null,"trial_type":"image-keyboard-response","trial_index":134,"plugin_version":"2.1.0","time_elapsed":270932,"subject_id":"89799","group":"Group2","full_date":"2025-12-03T22:33:29.060Z","date":"2025-12-03","time":"22:33:29"},{"rt":null,"stimulus":"<p style=\"font-size: 50px; margin: 0; text-align: center;\">+</p>","response":null,"trial_type":"html-keyboard-response","trial_index":135,"plugin_version":"2.1.0","time_elapsed":271935,"subject_id":"89799","group":"Group2","full_date":"2025-12-03T22:33:29.060Z","date":"2025-12-03","time":"22:33:29"},{"task":"memory_phase","broad_category":"I","image_png":"I_Rhyolite_10.png","image_id":154,"category_name":"Rhyolite","category":10,"distinct_rating":2.88,"distinct_type":"Bottom","rt":null,"stimulus":"Stimuli_Rocks480/I_Rhyolite_10.png","response":null,"trial_type":"image-keyboard-response","trial_index":136,"plugin_version":"2.1.0","time_elapsed":274438,"subject_id":"89799","group":"Group2","full_date":"2025-12-03T22:33:29.060Z","date":"2025-12-03","time":"22:33:29"},{"rt":null,"stimulus":"<p style=\"font-size: 50px; margin: 0; text-align: center;\">+</p>","response":null,"trial_type":"html-keyboard-response","trial_index":137,"plugin_version":"2.1.0","time_elapsed":275441,"subject_id":"89799","group":"Group2","full_date":"2025-12-03T22:33:29.060Z","date":"2025-12-03","time":"22:33:29"},{"task":"memory_phase","broad_category":"S","image_png":"S_Shale_02.png","image_id":466,"category_name":"Shale","category":30,"distinct_rating":2.9,"distinct_type":"Bottom","rt":null,"stimulus":"Stimuli_Rocks480/S_Shale_02.png","response":null,"trial_type":"image-keyboard-response","trial_index":138,"plugin_version":"2.1.0","time_elapsed":277945,"subject_id":"89799","group":"Group2","full_date":"2025-12-03T22:33:29.060Z","date":"2025-12-03","time":"22:33:29"},{"rt":null,"stimulus":"<p style=\"font-size: 50px; margin: 0; text-align: center;\">+</p>","response":null,"trial_type":"html-keyboard-response","trial_index":139,"plugin_version":"2.1.0","time_elapsed":278947,"subject_id":"89799","group":"Group2","full_date":"2025-12-03T22:33:29.060Z","date":"2025-12-03","time":"22:33:29"},{"task":"memory_phase","broad_category":"M","image_png":"M_Gneiss_10.png","image_id":202,"category_name":"Gneiss","category":13,"distinct_rating":3.09,"distinct_type":"Bottom","rt":null,"stimulus":"Stimuli_Rocks480/M_Gneiss_10.png","response":null,"trial_type":"image-keyboard-response","trial_index":140,"plugin_version":"2.1.0","time_elapsed":281451,"subject_id":"89799","group":"Group2","full_date":"2025-12-03T22:33:29.060Z","date":"2025-12-03","time":"22:33:29"},{"rt":null,"stimulus":"<p style=\"font-size: 50px; margin: 0; text-align: center;\">+</p>","response":null,"trial_type":"html-keyboard-response","trial_index":141,"plugin_version":"2.1.0","time_elapsed":282454,"subject_id":"89799","group":"Group2","full_date":"2025-12-03T22:33:29.060Z","date":"2025-12-03","time":"22:33:29"},{"task":"memory_phase","broad_category":"I","image_png":"I_Peridotite_13.png","image_id":125,"category_name":"Peridotite","category":8,"distinct_rating":7.28,"distinct_type":"Top","rt":null,"stimulus":"Stimuli_Rocks480/I_Peridotite_13.png","response":null,"trial_type":"image-keyboard-response","trial_index":142,"plugin_version":"2.1.0","time_elapsed":284957,"subject_id":"89799","group":"Group2","full_date":"2025-12-03T22:33:29.060Z","date":"2025-12-03","time":"22:33:29"},{"rt":null,"stimulus":"<p style=\"font-size: 50px; margin: 0; text-align: center;\">+</p>","response":null,"trial_type":"html-keyboard-response","trial_index":143,"plugin_version":"2.1.0","time_elapsed":285960,"subject_id":"89799","group":"Group2","full_date":"2025-12-03T22:33:29.060Z","date":"2025-12-03","time":"22:33:29"},{"task":"memory_phase","broad_category":"I","image_png":"I_Andesite_04.png","image_id":4,"category_name":"Andesite","category":1,"distinct_rating":3.18,"distinct_type":"Bottom","rt":null,"stimulus":"Stimuli_Rocks480/I_Andesite_04.png","response":null,"trial_type":"image-keyboard-response","trial_index":144,"plugin_version":"2.1.0","time_elapsed":288463,"subject_id":"89799","group":"Group2","full_date":"2025-12-03T22:33:29.060Z","date":"2025-12-03","time":"22:33:29"},{"rt":null,"stimulus":"<p style=\"font-size: 50px; margin: 0; text-align: center;\">+</p>","response":null,"trial_type":"html-keyboard-response","trial_index":145,"plugin_version":"2.1.0","time_elapsed":289466,"subject_id":"89799","group":"Group2","full_date":"2025-12-03T22:33:29.060Z","date":"2025-12-03","time":"22:33:29"},{"task":"memory_phase","broad_category":"M","image_png":"M_Slate_14.png","image_id":318,"category_name":"Slate","category":20,"distinct_rating":2.58,"distinct_type":"Bottom","rt":null,"stimulus":"Stimuli_Rocks480/M_Slate_14.png","response":null,"trial_type":"image-keyboard-response","trial_index":146,"plugin_version":"2.1.0","time_elapsed":291969,"subject_id":"89799","group":"Group2","full_date":"2025-12-03T22:33:29.060Z","date":"2025-12-03","time":"22:33:29"},{"rt":null,"stimulus":"<p style=\"font-size: 50px; margin: 0; text-align: center;\">+</p>","response":null,"trial_type":"html-keyboard-response","trial_index":147,"plugin_version":"2.1.0","time_elapsed":292972,"subject_id":"89799","group":"Group2","full_date":"2025-12-03T22:33:29.060Z","date":"2025-12-03","time":"22:33:29"},{"task":"memory_phase","broad_category":"I","image_png":"I_Basalt_08.png","image_id":24,"category_name":"Basalt","category":2,"distinct_rating":2.31,"distinct_type":"Bottom","rt":null,"stimulus":"Stimuli_Rocks480/I_Basalt_08.png","response":null,"trial_type":"image-keyboard-response","trial_index":148,"plugin_version":"2.1.0","time_elapsed":295476,"subject_id":"89799","group":"Group2","full_date":"2025-12-03T22:33:29.060Z","date":"2025-12-03","time":"22:33:29"},{"rt":null,"stimulus":"<p style=\"font-size: 50px; margin: 0; text-align: center;\">+</p>","response":null,"trial_type":"html-keyboard-response","trial_index":149,"plugin_version":"2.1.0","time_elapsed":296478,"subject_id":"89799","group":"Group2","full_date":"2025-12-03T22:33:29.060Z","date":"2025-12-03","time":"22:33:29"},{"task":"memory_phase","broad_category":"S","image_png":"S_Sandstone_11.png","image_id":459,"category_name":"Sandstone","category":29,"distinct_rating":1.82,"distinct_type":"Bottom","rt":null,"stimulus":"Stimuli_Rocks480/S_Sandstone_11.png","response":null,"trial_type":"image-keyboard-response","trial_index":150,"plugin_version":"2.1.0","time_elapsed":298981,"subject_id":"89799","group":"Group2","full_date":"2025-12-03T22:33:29.060Z","date":"2025-12-03","time":"22:33:29"},{"rt":null,"stimulus":"<p style=\"font-size: 50px; margin: 0; text-align: center;\">+</p>","response":null,"trial_type":"html-keyboard-response","trial_index":151,"plugin_version":"2.1.0","time_elapsed":299984,"subject_id":"89799","group":"Group2","full_date":"2025-12-03T22:33:29.060Z","date":"2025-12-03","time":"22:33:29"},{"task":"memory_phase","broad_category":"I","image_png":"I_Rhyolite_08.png","image_id":152,"category_name":"Rhyolite","category":10,"distinct_rating":1.38,"distinct_type":"Bottom","rt":null,"stimulus":"Stimuli_Rocks480/I_Rhyolite_08.png","response":null,"trial_type":"image-keyboard-response","trial_index":152,"plugin_version":"2.1.0","time_elapsed":302488,"subject_id":"89799","group":"Group2","full_date":"2025-12-03T22:33:29.060Z","date":"2025-12-03","time":"22:33:29"},{"rt":null,"stimulus":"<p style=\"font-size: 50px; margin: 0; text-align: center;\">+</p>","response":null,"trial_type":"html-keyboard-response","trial_index":153,"plugin_version":"2.1.0","time_elapsed":303490,"subject_id":"89799","group":"Group2","full_date":"2025-12-03T22:33:29.060Z","date":"2025-12-03","time":"22:33:29"},{"task":"memory_phase","broad_category":"I","image_png":"I_Basalt_10.png","image_id":26,"category_name":"Basalt","category":2,"distinct_rating":2.76,"distinct_type":"Bottom","rt":null,"stimulus":"Stimuli_Rocks480/I_Basalt_10.png","response":null,"trial_type":"image-keyboard-response","trial_index":154,"plugin_version":"2.1.0","time_elapsed":305993,"subject_id":"89799","group":"Group2","full_date":"2025-12-03T22:33:29.060Z","date":"2025-12-03","time":"22:33:29"},{"rt":null,"stimulus":"<p style=\"font-size: 50px; margin: 0; text-align: center;\">+</p>","response":null,"trial_type":"html-keyboard-response","trial_index":155,"plugin_version":"2.1.0","time_elapsed":306996,"subject_id":"89799","group":"Group2","full_date":"2025-12-03T22:33:29.060Z","date":"2025-12-03","time":"22:33:29"},{"task":"memory_phase","broad_category":"S","image_png":"S_Rock Salt_13.png","image_id":445,"category_name":"Rock Salt","category":28,"distinct_rating":7.58,"distinct_type":"Top","rt":null,"stimulus":"Stimuli_Rocks480/S_Rock Salt_13.png","response":null,"trial_type":"image-keyboard-response","trial_index":156,"plugin_version":"2.1.0","time_elapsed":309499,"subject_id":"89799","group":"Group2","full_date":"2025-12-03T22:33:29.060Z","date":"2025-12-03","time":"22:33:29"},{"rt":2247,"stimulus":"<p style=\"max-width: 760px; margin: auto; font-size: 35px; line-height: 1.5;\">Press SPACE to continue study phase</p>","response":" ","trial_type":"html-keyboard-response","trial_index":157,"plugin_version":"2.1.0","time_elapsed":311747,"subject_id":"89799","group":"Group2","full_date":"2025-12-03T22:33:29.060Z","date":"2025-12-03","time":"22:33:29"},{"rt":null,"stimulus":"<p style=\"font-size: 50px; margin: 0; text-align: center;\">+</p>","response":null,"trial_type":"html-keyboard-response","trial_index":158,"plugin_version":"2.1.0","time_elapsed":312750,"subject_id":"89799","group":"Group2","full_date":"2025-12-03T22:33:29.060Z","date":"2025-12-03","time":"22:33:29"},{"task":"memory_phase","broad_category":"M","image_png":"M_Slate_04.png","image_id":308,"category_name":"Slate","category":20,"distinct_rating":2.2,"distinct_type":"Bottom","rt":null,"stimulus":"Stimuli_Rocks480/M_Slate_04.png","response":null,"trial_type":"image-keyboard-response","trial_index":159,"plugin_version":"2.1.0","time_elapsed":315254,"subject_id":"89799","group":"Group2","full_date":"2025-12-03T22:33:29.060Z","date":"2025-12-03","time":"22:33:29"},{"rt":null,"stimulus":"<p style=\"font-size: 50px; margin: 0; text-align: center;\">+</p>","response":null,"trial_type":"html-keyboard-response","trial_index":160,"plugin_version":"2.1.0","time_elapsed":316257,"subject_id":"89799","group":"Group2","full_date":"2025-12-03T22:33:29.060Z","date":"2025-12-03","time":"22:33:29"},{"task":"memory_phase","broad_category":"S","image_png":"S_Conglomerate_14.png","image_id":382,"category_name":"Conglomerate","category":24,"distinct_rating":6.86,"distinct_type":"Top","rt":null,"stimulus":"Stimuli_Rocks480/S_Conglomerate_14.png","response":null,"trial_type":"image-keyboard-response","trial_index":161,"plugin_version":"2.1.0","time_elapsed":318761,"subject_id":"89799","group":"Group2","full_date":"2025-12-03T22:33:29.060Z","date":"2025-12-03","time":"22:33:29"},{"rt":null,"stimulus":"<p style=\"font-size: 50px; margin: 0; text-align: center;\">+</p>","response":null,"trial_type":"html-keyboard-response","trial_index":162,"plugin_version":"2.1.0","time_elapsed":319763,"subject_id":"89799","group":"Group2","full_date":"2025-12-03T22:33:29.060Z","date":"2025-12-03","time":"22:33:29"},{"task":"memory_phase","broad_category":"S","image_png":"S_Dolomite_07.png","image_id":391,"category_name":"Dolomite","category":25,"distinct_rating":1.73,"distinct_type":"Bottom","rt":null,"stimulus":"Stimuli_Rocks480/S_Dolomite_07.png","response":null,"trial_type":"image-keyboard-response","trial_index":163,"plugin_version":"2.1.0","time_elapsed":322267,"subject_id":"89799","group":"Group2","full_date":"2025-12-03T22:33:29.060Z","date":"2025-12-03","time":"22:33:29"},{"rt":null,"stimulus":"<p style=\"font-size: 50px; margin: 0; text-align: center;\">+</p>","response":null,"trial_type":"html-keyboard-response","trial_index":164,"plugin_version":"2.1.0","time_elapsed":323269,"subject_id":"89799","group":"Group2","full_date":"2025-12-03T22:33:29.060Z","date":"2025-12-03","time":"22:33:29"},{"task":"memory_phase","broad_category":"M","image_png":"M_Quartzite_07.png","image_id":279,"category_name":"Quartzite","category":18,"distinct_rating":1.97,"distinct_type":"Bottom","rt":null,"stimulus":"Stimuli_Rocks480/M_Quartzite_07.png","response":null,"trial_type":"image-keyboard-response","trial_index":165,"plugin_version":"2.1.0","time_elapsed":325772,"subject_id":"89799","group":"Group2","full_date":"2025-12-03T22:33:29.060Z","date":"2025-12-03","time":"22:33:29"},{"rt":null,"stimulus":"<p style=\"font-size: 50px; margin: 0; text-align: center;\">+</p>","response":null,"trial_type":"html-keyboard-response","trial_index":166,"plugin_version":"2.1.0","time_elapsed":326775,"subject_id":"89799","group":"Group2","full_date":"2025-12-03T22:33:29.060Z","date":"2025-12-03","time":"22:33:29"},{"task":"memory_phase","broad_category":"S","image_png":"S_Shale_03.png","image_id":467,"category_name":"Shale","category":30,"distinct_rating":1.95,"distinct_type":"Bottom","rt":null,"stimulus":"Stimuli_Rocks480/S_Shale_03.png","response":null,"trial_type":"image-keyboard-response","trial_index":167,"plugin_version":"2.1.0","time_elapsed":329279,"subject_id":"89799","group":"Group2","full_date":"2025-12-03T22:33:29.060Z","date":"2025-12-03","time":"22:33:29"},{"rt":null,"stimulus":"<p style=\"font-size: 50px; margin: 0; text-align: center;\">+</p>","response":null,"trial_type":"html-keyboard-response","trial_index":168,"plugin_version":"2.1.0","time_elapsed":330283,"subject_id":"89799","group":"Group2","full_date":"2025-12-03T22:33:29.060Z","date":"2025-12-03","time":"22:33:29"},{"task":"memory_phase","broad_category":"S","image_png":"S_Sandstone_04.png","image_id":452,"category_name":"Sandstone","category":29,"distinct_rating":1.8,"distinct_type":"Bottom","rt":null,"stimulus":"Stimuli_Rocks480/S_Sandstone_04.png","response":null,"trial_type":"image-keyboard-response","trial_index":169,"plugin_version":"2.1.0","time_elapsed":332787,"subject_id":"89799","group":"Group2","full_date":"2025-12-03T22:33:29.060Z","date":"2025-12-03","time":"22:33:29"},{"rt":null,"stimulus":"<p style=\"font-size: 50px; margin: 0; text-align: center;\">+</p>","response":null,"trial_type":"html-keyboard-response","trial_index":170,"plugin_version":"2.1.0","time_elapsed":333789,"subject_id":"89799","group":"Group2","full_date":"2025-12-03T22:33:29.060Z","date":"2025-12-03","time":"22:33:29"},{"task":"memory_phase","broad_category":"I","image_png":"I_Pumice_01.png","image_id":129,"category_name":"Pumice","category":9,"distinct_rating":3.25,"distinct_type":"Bottom","rt":null,"stimulus":"Stimuli_Rocks480/I_Pumice_01.png","response":null,"trial_type":"image-keyboard-response","trial_index":171,"plugin_version":"2.1.0","time_elapsed":336293,"subject_id":"89799","group":"Group2","full_date":"2025-12-03T22:33:29.060Z","date":"2025-12-03","time":"22:33:29"},{"rt":null,"stimulus":"<p style=\"font-size: 50px; margin: 0; text-align: center;\">+</p>","response":null,"trial_type":"html-keyboard-response","trial_index":172,"plugin_version":"2.1.0","time_elapsed":337296,"subject_id":"89799","group":"Group2","full_date":"2025-12-03T22:33:29.060Z","date":"2025-12-03","time":"22:33:29"},{"task":"memory_phase","broad_category":"I","image_png":"I_Andesite_03.png","image_id":3,"category_name":"Andesite","category":1,"distinct_rating":3.17,"distinct_type":"Bottom","rt":null,"stimulus":"Stimuli_Rocks480/I_Andesite_03.png","response":null,"trial_type":"image-keyboard-response","trial_index":173,"plugin_version":"2.1.0","time_elapsed":339800,"subject_id":"89799","group":"Group2","full_date":"2025-12-03T22:33:29.060Z","date":"2025-12-03","time":"22:33:29"},{"rt":null,"stimulus":"<p style=\"font-size: 50px; margin: 0; text-align: center;\">+</p>","response":null,"trial_type":"html-keyboard-response","trial_index":174,"plugin_version":"2.1.0","time_elapsed":340803,"subject_id":"89799","group":"Group2","full_date":"2025-12-03T22:33:29.060Z","date":"2025-12-03","time":"22:33:29"},{"task":"memory_phase","broad_category":"S","image_png":"S_Dolomite_16.png","image_id":400,"category_name":"Dolomite","category":25,"distinct_rating":1.71,"distinct_type":"Bottom","rt":null,"stimulus":"Stimuli_Rocks480/S_Dolomite_16.png","response":null,"trial_type":"image-keyboard-response","trial_index":175,"plugin_version":"2.1.0","time_elapsed":343307,"subject_id":"89799","group":"Group2","full_date":"2025-12-03T22:33:29.060Z","date":"2025-12-03","time":"22:33:29"},{"rt":null,"stimulus":"<p style=\"font-size: 50px; margin: 0; text-align: center;\">+</p>","response":null,"trial_type":"html-keyboard-response","trial_index":176,"plugin_version":"2.1.0","time_elapsed":344310,"subject_id":"89799","group":"Group2","full_date":"2025-12-03T22:33:29.060Z","date":"2025-12-03","time":"22:33:29"},{"task":"memory_phase","broad_category":"M","image_png":"M_Marble_03.png","image_id":227,"category_name":"Marble","category":15,"distinct_rating":2.67,"distinct_type":"Bottom","rt":null,"stimulus":"Stimuli_Rocks480/M_Marble_03.png","response":null,"trial_type":"image-keyboard-response","trial_index":177,"plugin_version":"2.1.0","time_elapsed":346813,"subject_id":"89799","group":"Group2","full_date":"2025-12-03T22:33:29.060Z","date":"2025-12-03","time":"22:33:29"},{"rt":null,"stimulus":"<p style=\"font-size: 50px; margin: 0; text-align: center;\">+</p>","response":null,"trial_type":"html-keyboard-response","trial_index":178,"plugin_version":"2.1.0","time_elapsed":347816,"subject_id":"89799","group":"Group2","full_date":"2025-12-03T22:33:29.060Z","date":"2025-12-03","time":"22:33:29"},{"task":"memory_phase","broad_category":"M","image_png":"M_Gneiss_14.png","image_id":206,"category_name":"Gneiss","category":13,"distinct_rating":3.41,"distinct_type":"Bottom","rt":null,"stimulus":"Stimuli_Rocks480/M_Gneiss_14.png","response":null,"trial_type":"image-keyboard-response","trial_index":179,"plugin_version":"2.1.0","time_elapsed":350319,"subject_id":"89799","group":"Group2","full_date":"2025-12-03T22:33:29.060Z","date":"2025-12-03","time":"22:33:29"},{"rt":null,"stimulus":"<p style=\"font-size: 50px; margin: 0; text-align: center;\">+</p>","response":null,"trial_type":"html-keyboard-response","trial_index":180,"plugin_version":"2.1.0","time_elapsed":351323,"subject_id":"89799","group":"Group2","full_date":"2025-12-03T22:33:29.060Z","date":"2025-12-03","time":"22:33:29"},{"task":"memory_phase","broad_category":"M","image_png":"M_Quartzite_12.png","image_id":284,"category_name":"Quartzite","category":18,"distinct_rating":1.92,"distinct_type":"Bottom","rt":null,"stimulus":"Stimuli_Rocks480/M_Quartzite_12.png","response":null,"trial_type":"image-keyboard-response","trial_index":181,"plugin_version":"2.1.0","time_elapsed":353827,"subject_id":"89799","group":"Group2","full_date":"2025-12-03T22:33:29.060Z","date":"2025-12-03","time":"22:33:29"},{"rt":null,"stimulus":"<p style=\"font-size: 50px; margin: 0; text-align: center;\">+</p>","response":null,"trial_type":"html-keyboard-response","trial_index":182,"plugin_version":"2.1.0","time_elapsed":354829,"subject_id":"89799","group":"Group2","full_date":"2025-12-03T22:33:29.060Z","date":"2025-12-03","time":"22:33:29"},{"task":"memory_phase","broad_category":"I","image_png":"I_Pegmatite_03.png","image_id":99,"category_name":"Pegmatite","category":7,"distinct_rating":7.24,"distinct_type":"Top","rt":null,"stimulus":"Stimuli_Rocks480/I_Pegmatite_03.png","response":null,"trial_type":"image-keyboard-response","trial_index":183,"plugin_version":"2.1.0","time_elapsed":357333,"subject_id":"89799","group":"Group2","full_date":"2025-12-03T22:33:29.060Z","date":"2025-12-03","time":"22:33:29"},{"rt":null,"stimulus":"<p style=\"font-size: 50px; margin: 0; text-align: center;\">+</p>","response":null,"trial_type":"html-keyboard-response","trial_index":184,"plugin_version":"2.1.0","time_elapsed":358336,"subject_id":"89799","group":"Group2","full_date":"2025-12-03T22:33:29.060Z","date":"2025-12-03","time":"22:33:29"},{"task":"memory_phase","broad_category":"S","image_png":"S_Sandstone_08.png","image_id":456,"category_name":"Sandstone","category":29,"distinct_rating":1.5,"distinct_type":"Bottom","rt":null,"stimulus":"Stimuli_Rocks480/S_Sandstone_08.png","response":null,"trial_type":"image-keyboard-response","trial_index":185,"plugin_version":"2.1.0","time_elapsed":360839,"subject_id":"89799","group":"Group2","full_date":"2025-12-03T22:33:29.060Z","date":"2025-12-03","time":"22:33:29"},{"rt":null,"stimulus":"<p style=\"font-size: 50px; margin: 0; text-align: center;\">+</p>","response":null,"trial_type":"html-keyboard-response","trial_index":186,"plugin_version":"2.1.0","time_elapsed":361841,"subject_id":"89799","group":"Group2","full_date":"2025-12-03T22:33:29.060Z","date":"2025-12-03","time":"22:33:29"},{"task":"memory_phase","broad_category":"I","image_png":"I_Gabbro_02.png","image_id":50,"category_name":"Gabbro","category":4,"distinct_rating":2.73,"distinct_type":"Bottom","rt":null,"stimulus":"Stimuli_Rocks480/I_Gabbro_02.png","response":null,"trial_type":"image-keyboard-response","trial_index":187,"plugin_version":"2.1.0","time_elapsed":364345,"subject_id":"89799","group":"Group2","full_date":"2025-12-03T22:33:29.060Z","date":"2025-12-03","time":"22:33:29"},{"rt":null,"stimulus":"<p style=\"font-size: 50px; margin: 0; text-align: center;\">+</p>","response":null,"trial_type":"html-keyboard-response","trial_index":188,"plugin_version":"2.1.0","time_elapsed":365348,"subject_id":"89799","group":"Group2","full_date":"2025-12-03T22:33:29.060Z","date":"2025-12-03","time":"22:33:29"},{"task":"memory_phase","broad_category":"I","image_png":"I_Basalt_13.png","image_id":29,"category_name":"Basalt","category":2,"distinct_rating":2.68,"distinct_type":"Bottom","rt":null,"stimulus":"Stimuli_Rocks480/I_Basalt_13.png","response":null,"trial_type":"image-keyboard-response","trial_index":189,"plugin_version":"2.1.0","time_elapsed":367852,"subject_id":"89799","group":"Group2","full_date":"2025-12-03T22:33:29.060Z","date":"2025-12-03","time":"22:33:29"},{"rt":null,"stimulus":"<p style=\"font-size: 50px; margin: 0; text-align: center;\">+</p>","response":null,"trial_type":"html-keyboard-response","trial_index":190,"plugin_version":"2.1.0","time_elapsed":368854,"subject_id":"89799","group":"Group2","full_date":"2025-12-03T22:33:29.060Z","date":"2025-12-03","time":"22:33:29"},{"task":"memory_phase","broad_category":"I","image_png":"I_Diorite_01.png","image_id":33,"category_name":"Diorite","category":3,"distinct_rating":2.97,"distinct_type":"Bottom","rt":null,"stimulus":"Stimuli_Rocks480/I_Diorite_01.png","response":null,"trial_type":"image-keyboard-response","trial_index":191,"plugin_version":"2.1.0","time_elapsed":371358,"subject_id":"89799","group":"Group2","full_date":"2025-12-03T22:33:29.060Z","date":"2025-12-03","time":"22:33:29"},{"rt":null,"stimulus":"<p style=\"font-size: 50px; margin: 0; text-align: center;\">+</p>","response":null,"trial_type":"html-keyboard-response","trial_index":192,"plugin_version":"2.1.0","time_elapsed":372360,"subject_id":"89799","group":"Group2","full_date":"2025-12-03T22:33:29.060Z","date":"2025-12-03","time":"22:33:29"},{"task":"memory_phase","broad_category":"I","image_png":"I_Obsidian_06.png","image_id":86,"category_name":"Obsidian","category":6,"distinct_rating":8.01,"distinct_type":"Top","rt":null,"stimulus":"Stimuli_Rocks480/I_Obsidian_06.png","response":null,"trial_type":"image-keyboard-response","trial_index":193,"plugin_version":"2.1.0","time_elapsed":374863,"subject_id":"89799","group":"Group2","full_date":"2025-12-03T22:33:29.060Z","date":"2025-12-03","time":"22:33:29"},{"rt":null,"stimulus":"<p style=\"font-size: 50px; margin: 0; text-align: center;\">+</p>","response":null,"trial_type":"html-keyboard-response","trial_index":194,"plugin_version":"2.1.0","time_elapsed":375866,"subject_id":"89799","group":"Group2","full_date":"2025-12-03T22:33:29.060Z","date":"2025-12-03","time":"22:33:29"},{"task":"memory_phase","broad_category":"S","image_png":"S_Rock Salt_15.png","image_id":447,"category_name":"Rock Salt","category":28,"distinct_rating":7.79,"distinct_type":"Top","rt":null,"stimulus":"Stimuli_Rocks480/S_Rock Salt_15.png","response":null,"trial_type":"image-keyboard-response","trial_index":195,"plugin_version":"2.1.0","time_elapsed":378369,"subject_id":"89799","group":"Group2","full_date":"2025-12-03T22:33:29.060Z","date":"2025-12-03","time":"22:33:29"},{"rt":null,"stimulus":"<p style=\"font-size: 50px; margin: 0; text-align: center;\">+</p>","response":null,"trial_type":"html-keyboard-response","trial_index":196,"plugin_version":"2.1.0","time_elapsed":379371,"subject_id":"89799","group":"Group2","full_date":"2025-12-03T22:33:29.060Z","date":"2025-12-03","time":"22:33:29"},{"task":"memory_phase","broad_category":"M","image_png":"M_Gneiss_15.png","image_id":207,"category_name":"Gneiss","category":13,"distinct_rating":3.11,"distinct_type":"Bottom","rt":null,"stimulus":"Stimuli_Rocks480/M_Gneiss_15.png","response":null,"trial_type":"image-keyboard-response","trial_index":197,"plugin_version":"2.1.0","time_elapsed":381875,"subject_id":"89799","group":"Group2","full_date":"2025-12-03T22:33:29.060Z","date":"2025-12-03","time":"22:33:29"},{"rt":null,"stimulus":"<p style=\"font-size: 50px; margin: 0; text-align: center;\">+</p>","response":null,"trial_type":"html-keyboard-response","trial_index":198,"plugin_version":"2.1.0","time_elapsed":382876,"subject_id":"89799","group":"Group2","full_date":"2025-12-03T22:33:29.060Z","date":"2025-12-03","time":"22:33:29"},{"task":"memory_phase","broad_category":"M","image_png":"M_Phyllite_13.png","image_id":269,"category_name":"Phyllite","category":17,"distinct_rating":2.8,"distinct_type":"Bottom","rt":null,"stimulus":"Stimuli_Rocks480/M_Phyllite_13.png","response":null,"trial_type":"image-keyboard-response","trial_index":199,"plugin_version":"2.1.0","time_elapsed":385381,"subject_id":"89799","group":"Group2","full_date":"2025-12-03T22:33:29.060Z","date":"2025-12-03","time":"22:33:29"},{"rt":null,"stimulus":"<p style=\"font-size: 50px; margin: 0; text-align: center;\">+</p>","response":null,"trial_type":"html-keyboard-response","trial_index":200,"plugin_version":"2.1.0","time_elapsed":386384,"subject_id":"89799","group":"Group2","full_date":"2025-12-03T22:33:29.060Z","date":"2025-12-03","time":"22:33:29"},{"task":"memory_phase","broad_category":"M","image_png":"M_Phyllite_05.png","image_id":261,"category_name":"Phyllite","category":17,"distinct_rating":2.14,"distinct_type":"Bottom","rt":null,"stimulus":"Stimuli_Rocks480/M_Phyllite_05.png","response":null,"trial_type":"image-keyboard-response","trial_index":201,"plugin_version":"2.1.0","time_elapsed":388888,"subject_id":"89799","group":"Group2","full_date":"2025-12-03T22:33:29.060Z","date":"2025-12-03","time":"22:33:29"},{"rt":null,"stimulus":"<p style=\"font-size: 50px; margin: 0; text-align: center;\">+</p>","response":null,"trial_type":"html-keyboard-response","trial_index":202,"plugin_version":"2.1.0","time_elapsed":389890,"subject_id":"89799","group":"Group2","full_date":"2025-12-03T22:33:29.060Z","date":"2025-12-03","time":"22:33:29"},{"task":"memory_phase","broad_category":"I","image_png":"I_Andesite_09.png","image_id":9,"category_name":"Andesite","category":1,"distinct_rating":2.49,"distinct_type":"Bottom","rt":null,"stimulus":"Stimuli_Rocks480/I_Andesite_09.png","response":null,"trial_type":"image-keyboard-response","trial_index":203,"plugin_version":"2.1.0","time_elapsed":392394,"subject_id":"89799","group":"Group2","full_date":"2025-12-03T22:33:29.060Z","date":"2025-12-03","time":"22:33:29"},{"rt":null,"stimulus":"<p style=\"font-size: 50px; margin: 0; text-align: center;\">+</p>","response":null,"trial_type":"html-keyboard-response","trial_index":204,"plugin_version":"2.1.0","time_elapsed":393397,"subject_id":"89799","group":"Group2","full_date":"2025-12-03T22:33:29.060Z","date":"2025-12-03","time":"22:33:29"},{"task":"memory_phase","broad_category":"I","image_png":"I_Diorite_15.png","image_id":47,"category_name":"Diorite","category":3,"distinct_rating":3.05,"distinct_type":"Bottom","rt":null,"stimulus":"Stimuli_Rocks480/I_Diorite_15.png","response":null,"trial_type":"image-keyboard-response","trial_index":205,"plugin_version":"2.1.0","time_elapsed":395901,"subject_id":"89799","group":"Group2","full_date":"2025-12-03T22:33:29.060Z","date":"2025-12-03","time":"22:33:29"},{"rt":null,"stimulus":"<p style=\"font-size: 50px; margin: 0; text-align: center;\">+</p>","response":null,"trial_type":"html-keyboard-response","trial_index":206,"plugin_version":"2.1.0","time_elapsed":396904,"subject_id":"89799","group":"Group2","full_date":"2025-12-03T22:33:29.060Z","date":"2025-12-03","time":"22:33:29"},{"task":"memory_phase","broad_category":"I","image_png":"I_Pumice_13.png","image_id":141,"category_name":"Pumice","category":9,"distinct_rating":3.12,"distinct_type":"Bottom","rt":null,"stimulus":"Stimuli_Rocks480/I_Pumice_13.png","response":null,"trial_type":"image-keyboard-response","trial_index":207,"plugin_version":"2.1.0","time_elapsed":399407,"subject_id":"89799","group":"Group2","full_date":"2025-12-03T22:33:29.060Z","date":"2025-12-03","time":"22:33:29"},{"rt":2091,"stimulus":"<p style=\"max-width: 760px; margin: auto; font-size: 35px; line-height: 1.5;\">You have completed 2 study phases. Now, we'll show you all the images again 1 more time.<br><br>Press SPACE to continue</p>","response":" ","trial_type":"html-keyboard-response","trial_index":208,"plugin_version":"2.1.0","time_elapsed":401499,"subject_id":"89799","group":"Group2","full_date":"2025-12-03T22:33:29.060Z","date":"2025-12-03","time":"22:33:29"},{"rt":null,"stimulus":"<p style=\"font-size: 50px; margin: 0; text-align: center;\">+</p>","response":null,"trial_type":"html-keyboard-response","trial_index":209,"plugin_version":"2.1.0","time_elapsed":402502,"subject_id":"89799","group":"Group2","full_date":"2025-12-03T22:33:29.060Z","date":"2025-12-03","time":"22:33:29"},{"task":"memory_phase","broad_category":"I","image_png":"I_Diorite_10.png","image_id":42,"category_name":"Diorite","category":3,"distinct_rating":2.84,"distinct_type":"Bottom","rt":null,"stimulus":"Stimuli_Rocks480/I_Diorite_10.png","response":null,"trial_type":"image-keyboard-response","trial_index":210,"plugin_version":"2.1.0","time_elapsed":405005,"subject_id":"89799","group":"Group2","full_date":"2025-12-03T22:33:29.060Z","date":"2025-12-03","time":"22:33:29"},{"rt":null,"stimulus":"<p style=\"font-size: 50px; margin: 0; text-align: center;\">+</p>","response":null,"trial_type":"html-keyboard-response","trial_index":211,"plugin_version":"2.1.0","time_elapsed":406008,"subject_id":"89799","group":"Group2","full_date":"2025-12-03T22:33:29.060Z","date":"2025-12-03","time":"22:33:29"},{"task":"memory_phase","broad_category":"S","image_png":"S_Dolomite_01.png","image_id":385,"category_name":"Dolomite","category":25,"distinct_rating":1.43,"distinct_type":"Bottom","rt":null,"stimulus":"Stimuli_Rocks480/S_Dolomite_01.png","response":null,"trial_type":"image-keyboard-response","trial_index":212,"plugin_version":"2.1.0","time_elapsed":408512,"subject_id":"89799","group":"Group2","full_date":"2025-12-03T22:33:29.060Z","date":"2025-12-03","time":"22:33:29"},{"rt":null,"stimulus":"<p style=\"font-size: 50px; margin: 0; text-align: center;\">+</p>","response":null,"trial_type":"html-keyboard-response","trial_index":213,"plugin_version":"2.1.0","time_elapsed":409515,"subject_id":"89799","group":"Group2","full_date":"2025-12-03T22:33:29.060Z","date":"2025-12-03","time":"22:33:29"},{"task":"memory_phase","broad_category":"I","image_png":"I_Obsidian_06.png","image_id":86,"category_name":"Obsidian","category":6,"distinct_rating":8.01,"distinct_type":"Top","rt":null,"stimulus":"Stimuli_Rocks480/I_Obsidian_06.png","response":null,"trial_type":"image-keyboard-response","trial_index":214,"plugin_version":"2.1.0","time_elapsed":412018,"subject_id":"89799","group":"Group2","full_date":"2025-12-03T22:33:29.060Z","date":"2025-12-03","time":"22:33:29"},{"rt":null,"stimulus":"<p style=\"font-size: 50px; margin: 0; text-align: center;\">+</p>","response":null,"trial_type":"html-keyboard-response","trial_index":215,"plugin_version":"2.1.0","time_elapsed":413020,"subject_id":"89799","group":"Group2","full_date":"2025-12-03T22:33:29.060Z","date":"2025-12-03","time":"22:33:29"},{"task":"memory_phase","broad_category":"M","image_png":"M_Quartzite_07.png","image_id":279,"category_name":"Quartzite","category":18,"distinct_rating":1.97,"distinct_type":"Bottom","rt":null,"stimulus":"Stimuli_Rocks480/M_Quartzite_07.png","response":null,"trial_type":"image-keyboard-response","trial_index":216,"plugin_version":"2.1.0","time_elapsed":415523,"subject_id":"89799","group":"Group2","full_date":"2025-12-03T22:33:29.060Z","date":"2025-12-03","time":"22:33:29"},{"rt":null,"stimulus":"<p style=\"font-size: 50px; margin: 0; text-align: center;\">+</p>","response":null,"trial_type":"html-keyboard-response","trial_index":217,"plugin_version":"2.1.0","time_elapsed":416526,"subject_id":"89799","group":"Group2","full_date":"2025-12-03T22:33:29.060Z","date":"2025-12-03","time":"22:33:29"},{"task":"memory_phase","broad_category":"I","image_png":"I_Pegmatite_03.png","image_id":99,"category_name":"Pegmatite","category":7,"distinct_rating":7.24,"distinct_type":"Top","rt":null,"stimulus":"Stimuli_Rocks480/I_Pegmatite_03.png","response":null,"trial_type":"image-keyboard-response","trial_index":218,"plugin_version":"2.1.0","time_elapsed":419030,"subject_id":"89799","group":"Group2","full_date":"2025-12-03T22:33:29.060Z","date":"2025-12-03","time":"22:33:29"},{"rt":null,"stimulus":"<p style=\"font-size: 50px; margin: 0; text-align: center;\">+</p>","response":null,"trial_type":"html-keyboard-response","trial_index":219,"plugin_version":"2.1.0","time_elapsed":420032,"subject_id":"89799","group":"Group2","full_date":"2025-12-03T22:33:29.060Z","date":"2025-12-03","time":"22:33:29"},{"task":"memory_phase","broad_category":"I","image_png":"I_Gabbro_14.png","image_id":62,"category_name":"Gabbro","category":4,"distinct_rating":2.95,"distinct_type":"Bottom","rt":null,"stimulus":"Stimuli_Rocks480/I_Gabbro_14.png","response":null,"trial_type":"image-keyboard-response","trial_index":220,"plugin_version":"2.1.0","time_elapsed":422535,"subject_id":"89799","group":"Group2","full_date":"2025-12-03T22:33:29.060Z","date":"2025-12-03","time":"22:33:29"},{"rt":null,"stimulus":"<p style=\"font-size: 50px; margin: 0; text-align: center;\">+</p>","response":null,"trial_type":"html-keyboard-response","trial_index":221,"plugin_version":"2.1.0","time_elapsed":423538,"subject_id":"89799","group":"Group2","full_date":"2025-12-03T22:33:29.060Z","date":"2025-12-03","time":"22:33:29"},{"task":"memory_phase","broad_category":"M","image_png":"M_Marble_14.png","image_id":238,"category_name":"Marble","category":15,"distinct_rating":3.31,"distinct_type":"Bottom","rt":null,"stimulus":"Stimuli_Rocks480/M_Marble_14.png","response":null,"trial_type":"image-keyboard-response","trial_index":222,"plugin_version":"2.1.0","time_elapsed":426042,"subject_id":"89799","group":"Group2","full_date":"2025-12-03T22:33:29.060Z","date":"2025-12-03","time":"22:33:29"},{"rt":null,"stimulus":"<p style=\"font-size: 50px; margin: 0; text-align: center;\">+</p>","response":null,"trial_type":"html-keyboard-response","trial_index":223,"plugin_version":"2.1.0","time_elapsed":427044,"subject_id":"89799","group":"Group2","full_date":"2025-12-03T22:33:29.060Z","date":"2025-12-03","time":"22:33:29"},{"task":"memory_phase","broad_category":"I","image_png":"I_Basalt_10.png","image_id":26,"category_name":"Basalt","category":2,"distinct_rating":2.76,"distinct_type":"Bottom","rt":null,"stimulus":"Stimuli_Rocks480/I_Basalt_10.png","response":null,"trial_type":"image-keyboard-response","trial_index":224,"plugin_version":"2.1.0","time_elapsed":429548,"subject_id":"89799","group":"Group2","full_date":"2025-12-03T22:33:29.060Z","date":"2025-12-03","time":"22:33:29"},{"rt":null,"stimulus":"<p style=\"font-size: 50px; margin: 0; text-align: center;\">+</p>","response":null,"trial_type":"html-keyboard-response","trial_index":225,"plugin_version":"2.1.0","time_elapsed":430550,"subject_id":"89799","group":"Group2","full_date":"2025-12-03T22:33:29.060Z","date":"2025-12-03","time":"22:33:29"},{"task":"memory_phase","broad_category":"I","image_png":"I_Peridotite_13.png","image_id":125,"category_name":"Peridotite","category":8,"distinct_rating":7.28,"distinct_type":"Top","rt":null,"stimulus":"Stimuli_Rocks480/I_Peridotite_13.png","response":null,"trial_type":"image-keyboard-response","trial_index":226,"plugin_version":"2.1.0","time_elapsed":433054,"subject_id":"89799","group":"Group2","full_date":"2025-12-03T22:33:29.060Z","date":"2025-12-03","time":"22:33:29"},{"rt":null,"stimulus":"<p style=\"font-size: 50px; margin: 0; text-align: center;\">+</p>","response":null,"trial_type":"html-keyboard-response","trial_index":227,"plugin_version":"2.1.0","time_elapsed":434056,"subject_id":"89799","group":"Group2","full_date":"2025-12-03T22:33:29.060Z","date":"2025-12-03","time":"22:33:29"},{"task":"memory_phase","broad_category":"M","image_png":"M_Phyllite_02.png","image_id":258,"category_name":"Phyllite","category":17,"distinct_rating":2.89,"distinct_type":"Bottom","rt":null,"stimulus":"Stimuli_Rocks480/M_Phyllite_02.png","response":null,"trial_type":"image-keyboard-response","trial_index":228,"plugin_version":"2.1.0","time_elapsed":436560,"subject_id":"89799","group":"Group2","full_date":"2025-12-03T22:33:29.060Z","date":"2025-12-03","time":"22:33:29"},{"rt":null,"stimulus":"<p style=\"font-size: 50px; margin: 0; text-align: center;\">+</p>","response":null,"trial_type":"html-keyboard-response","trial_index":229,"plugin_version":"2.1.0","time_elapsed":437563,"subject_id":"89799","group":"Group2","full_date":"2025-12-03T22:33:29.060Z","date":"2025-12-03","time":"22:33:29"},{"task":"memory_phase","broad_category":"I","image_png":"I_Andesite_04.png","image_id":4,"category_name":"Andesite","category":1,"distinct_rating":3.18,"distinct_type":"Bottom","rt":null,"stimulus":"Stimuli_Rocks480/I_Andesite_04.png","response":null,"trial_type":"image-keyboard-response","trial_index":230,"plugin_version":"2.1.0","time_elapsed":440067,"subject_id":"89799","group":"Group2","full_date":"2025-12-03T22:33:29.060Z","date":"2025-12-03","time":"22:33:29"},{"rt":null,"stimulus":"<p style=\"font-size: 50px; margin: 0; text-align: center;\">+</p>","response":null,"trial_type":"html-keyboard-response","trial_index":231,"plugin_version":"2.1.0","time_elapsed":441069,"subject_id":"89799","group":"Group2","full_date":"2025-12-03T22:33:29.060Z","date":"2025-12-03","time":"22:33:29"},{"task":"memory_phase","broad_category":"I","image_png":"I_Pumice_01.png","image_id":129,"category_name":"Pumice","category":9,"distinct_rating":3.25,"distinct_type":"Bottom","rt":null,"stimulus":"Stimuli_Rocks480/I_Pumice_01.png","response":null,"trial_type":"image-keyboard-response","trial_index":232,"plugin_version":"2.1.0","time_elapsed":443573,"subject_id":"89799","group":"Group2","full_date":"2025-12-03T22:33:29.060Z","date":"2025-12-03","time":"22:33:29"},{"rt":null,"stimulus":"<p style=\"font-size: 50px; margin: 0; text-align: center;\">+</p>","response":null,"trial_type":"html-keyboard-response","trial_index":233,"plugin_version":"2.1.0","time_elapsed":444576,"subject_id":"89799","group":"Group2","full_date":"2025-12-03T22:33:29.060Z","date":"2025-12-03","time":"22:33:29"},{"task":"memory_phase","broad_category":"S","image_png":"S_Rock Salt_15.png","image_id":447,"category_name":"Rock Salt","category":28,"distinct_rating":7.79,"distinct_type":"Top","rt":null,"stimulus":"Stimuli_Rocks480/S_Rock Salt_15.png","response":null,"trial_type":"image-keyboard-response","trial_index":234,"plugin_version":"2.1.0","time_elapsed":447080,"subject_id":"89799","group":"Group2","full_date":"2025-12-03T22:33:29.060Z","date":"2025-12-03","time":"22:33:29"},{"rt":null,"stimulus":"<p style=\"font-size: 50px; margin: 0; text-align: center;\">+</p>","response":null,"trial_type":"html-keyboard-response","trial_index":235,"plugin_version":"2.1.0","time_elapsed":448083,"subject_id":"89799","group":"Group2","full_date":"2025-12-03T22:33:29.060Z","date":"2025-12-03","time":"22:33:29"},{"task":"memory_phase","broad_category":"S","image_png":"S_Rock Salt_13.png","image_id":445,"category_name":"Rock Salt","category":28,"distinct_rating":7.58,"distinct_type":"Top","rt":null,"stimulus":"Stimuli_Rocks480/S_Rock Salt_13.png","response":null,"trial_type":"image-keyboard-response","trial_index":236,"plugin_version":"2.1.0","time_elapsed":450586,"subject_id":"89799","group":"Group2","full_date":"2025-12-03T22:33:29.060Z","date":"2025-12-03","time":"22:33:29"},{"rt":null,"stimulus":"<p style=\"font-size: 50px; margin: 0; text-align: center;\">+</p>","response":null,"trial_type":"html-keyboard-response","trial_index":237,"plugin_version":"2.1.0","time_elapsed":451590,"subject_id":"89799","group":"Group2","full_date":"2025-12-03T22:33:29.060Z","date":"2025-12-03","time":"22:33:29"},{"task":"memory_phase","broad_category":"I","image_png":"I_Diorite_15.png","image_id":47,"category_name":"Diorite","category":3,"distinct_rating":3.05,"distinct_type":"Bottom","rt":null,"stimulus":"Stimuli_Rocks480/I_Diorite_15.png","response":null,"trial_type":"image-keyboard-response","trial_index":238,"plugin_version":"2.1.0","time_elapsed":454093,"subject_id":"89799","group":"Group2","full_date":"2025-12-03T22:33:29.060Z","date":"2025-12-03","time":"22:33:29"},{"rt":null,"stimulus":"<p style=\"font-size: 50px; margin: 0; text-align: center;\">+</p>","response":null,"trial_type":"html-keyboard-response","trial_index":239,"plugin_version":"2.1.0","time_elapsed":455095,"subject_id":"89799","group":"Group2","full_date":"2025-12-03T22:33:29.060Z","date":"2025-12-03","time":"22:33:29"},{"task":"memory_phase","broad_category":"M","image_png":"M_Gneiss_14.png","image_id":206,"category_name":"Gneiss","category":13,"distinct_rating":3.41,"distinct_type":"Bottom","rt":null,"stimulus":"Stimuli_Rocks480/M_Gneiss_14.png","response":null,"trial_type":"image-keyboard-response","trial_index":240,"plugin_version":"2.1.0","time_elapsed":457599,"subject_id":"89799","group":"Group2","full_date":"2025-12-03T22:33:29.060Z","date":"2025-12-03","time":"22:33:29"},{"rt":null,"stimulus":"<p style=\"font-size: 50px; margin: 0; text-align: center;\">+</p>","response":null,"trial_type":"html-keyboard-response","trial_index":241,"plugin_version":"2.1.0","time_elapsed":458602,"subject_id":"89799","group":"Group2","full_date":"2025-12-03T22:33:29.060Z","date":"2025-12-03","time":"22:33:29"},{"task":"memory_phase","broad_category":"I","image_png":"I_Basalt_08.png","image_id":24,"category_name":"Basalt","category":2,"distinct_rating":2.31,"distinct_type":"Bottom","rt":null,"stimulus":"Stimuli_Rocks480/I_Basalt_08.png","response":null,"trial_type":"image-keyboard-response","trial_index":242,"plugin_version":"2.1.0","time_elapsed":461105,"subject_id":"89799","group":"Group2","full_date":"2025-12-03T22:33:29.060Z","date":"2025-12-03","time":"22:33:29"},{"rt":null,"stimulus":"<p style=\"font-size: 50px; margin: 0; text-align: center;\">+</p>","response":null,"trial_type":"html-keyboard-response","trial_index":243,"plugin_version":"2.1.0","time_elapsed":462108,"subject_id":"89799","group":"Group2","full_date":"2025-12-03T22:33:29.060Z","date":"2025-12-03","time":"22:33:29"},{"task":"memory_phase","broad_category":"M","image_png":"M_Marble_02.png","image_id":226,"category_name":"Marble","category":15,"distinct_rating":3.2,"distinct_type":"Bottom","rt":null,"stimulus":"Stimuli_Rocks480/M_Marble_02.png","response":null,"trial_type":"image-keyboard-response","trial_index":244,"plugin_version":"2.1.0","time_elapsed":464612,"subject_id":"89799","group":"Group2","full_date":"2025-12-03T22:33:29.060Z","date":"2025-12-03","time":"22:33:29"},{"rt":null,"stimulus":"<p style=\"font-size: 50px; margin: 0; text-align: center;\">+</p>","response":null,"trial_type":"html-keyboard-response","trial_index":245,"plugin_version":"2.1.0","time_elapsed":465615,"subject_id":"89799","group":"Group2","full_date":"2025-12-03T22:33:29.060Z","date":"2025-12-03","time":"22:33:29"},{"task":"memory_phase","broad_category":"I","image_png":"I_Pumice_13.png","image_id":141,"category_name":"Pumice","category":9,"distinct_rating":3.12,"distinct_type":"Bottom","rt":null,"stimulus":"Stimuli_Rocks480/I_Pumice_13.png","response":null,"trial_type":"image-keyboard-response","trial_index":246,"plugin_version":"2.1.0","time_elapsed":468119,"subject_id":"89799","group":"Group2","full_date":"2025-12-03T22:33:29.060Z","date":"2025-12-03","time":"22:33:29"},{"rt":null,"stimulus":"<p style=\"font-size: 50px; margin: 0; text-align: center;\">+</p>","response":null,"trial_type":"html-keyboard-response","trial_index":247,"plugin_version":"2.1.0","time_elapsed":469121,"subject_id":"89799","group":"Group2","full_date":"2025-12-03T22:33:29.060Z","date":"2025-12-03","time":"22:33:29"},{"task":"memory_phase","broad_category":"S","image_png":"S_Dolomite_16.png","image_id":400,"category_name":"Dolomite","category":25,"distinct_rating":1.71,"distinct_type":"Bottom","rt":null,"stimulus":"Stimuli_Rocks480/S_Dolomite_16.png","response":null,"trial_type":"image-keyboard-response","trial_index":248,"plugin_version":"2.1.0","time_elapsed":471625,"subject_id":"89799","group":"G