[{"width":1180,"height":713,"webaudio":true,"browser":"safari","browser_version":"18.6.0","mobile":false,"os":"Mac OS","fullscreen":true,"vsync_rate":60.36,"webcam":true,"microphone":true,"trial_type":"browser-check","trial_index":0,"plugin_version":"2.1.0","time_elapsed":1000,"subject_id":"88345","group":"Group1","full_date":"2025-12-04T21:16:41.443Z","date":"2025-12-04","time":"21:16:41"},{"success":true,"timeout":false,"failed_images":[],"failed_audio":[],"failed_video":[],"trial_type":"preload","trial_index":1,"plugin_version":"2.1.0","time_elapsed":1071,"subject_id":"88345","group":"Group1","full_date":"2025-12-04T21:16:41.443Z","date":"2025-12-04","time":"21:16:41"},{"rt":2916,"url":"SONA_consent_memorability.html","trial_type":"external-html","trial_index":2,"plugin_version":"2.1.0","time_elapsed":3986,"subject_id":"88345","group":"Group1","full_date":"2025-12-04T21:16:41.443Z","date":"2025-12-04","time":"21:16:41"},{"success":true,"rt":2879,"trial_type":"fullscreen","trial_index":3,"plugin_version":"2.1.0","time_elapsed":7867,"subject_id":"88345","group":"Group1","full_date":"2025-12-04T21:16:41.443Z","date":"2025-12-04","time":"21:16:41"},{"rt":191689,"stimulus":"<div style=\"max-width: 760px; margin: auto; font-size: 20px; line-height: 1.5;\">\n      <h1 style=\"text-align:center; font-size: 30px;\">Instructions</h1>\n      <p>\n        Welcome to the study on <b>visual memory</b>. This experiment consists of <b>two phases</b>: \n        a <b>study phase</b> and a <b>test phase</b>.\n      </p>\n      <p>\n        In the study phase, you will see a series of rock images along with their category labels.\n        The images will appear one at a time.\n        <b>Your task</b> is to learn the categories to which the rock images belong \n        and to remember each image as accurately as possible.\n      </p> \n      <p>\n        Note that we will repeat the study phase <b>3 times</b>, \n        so you will have multiple opportunities to see and remember each image.\n      </p>\n      <p>\n        After the study phase, <b>your memory will be tested</b>. \n        Additional instructions for the test phase will be provided at that time.\n      </p>\n      <p>\n        If your computer has multiple <b>language settings</b> (e.g., English and another language),\n        please make sure it is set to English before starting.\n      </p>\n      <p>\n        You can track your progress using the <b>completion bar</b> at the top of the screen. \n        Please note that the bar will refresh when the test phase begins \n        to give you an accurate sense of your progress in both phases.\n      </p> \n      <p>\n        Press the button below when you are ready to begin.\n      </p>\n    </div>","response":0,"trial_type":"html-button-response","trial_index":4,"plugin_version":"2.1.0","time_elapsed":199544,"subject_id":"88345","group":"Group1","full_date":"2025-12-04T21:16:41.443Z","date":"2025-12-04","time":"21:16:41"},{"rt":null,"stimulus":"<p style=\"font-size: 50px; margin: 0; text-align: center;\">+</p>","response":null,"trial_type":"html-keyboard-response","trial_index":5,"plugin_version":"2.1.0","time_elapsed":200549,"subject_id":"88345","group":"Group1","full_date":"2025-12-04T21:16:41.443Z","date":"2025-12-04","time":"21:16:41"},{"task":"memory_phase","broad_category":"I","image_png":"I_Pegmatite_10.png","image_id":106,"category_name":"Pegmatite","category":7,"distinct_rating":7.66,"distinct_type":"Top","rt":null,"stimulus":"Stimuli_Rocks480/I_Pegmatite_10.png","response":null,"trial_type":"image-keyboard-response","trial_index":6,"plugin_version":"2.1.0","time_elapsed":203065,"subject_id":"88345","group":"Group1","full_date":"2025-12-04T21:16:41.443Z","date":"2025-12-04","time":"21:16:41"},{"rt":null,"stimulus":"<p style=\"font-size: 50px; margin: 0; text-align: center;\">+</p>","response":null,"trial_type":"html-keyboard-response","trial_index":7,"plugin_version":"2.1.0","time_elapsed":204068,"subject_id":"88345","group":"Group1","full_date":"2025-12-04T21:16:41.443Z","date":"2025-12-04","time":"21:16:41"},{"task":"memory_phase","broad_category":"S","image_png":"S_Rock Salt_01.png","image_id":433,"category_name":"Rock Salt","category":28,"distinct_rating":7.18,"distinct_type":"Top","rt":null,"stimulus":"Stimuli_Rocks480/S_Rock Salt_01.png","response":null,"trial_type":"image-keyboard-response","trial_index":8,"plugin_version":"2.1.0","time_elapsed":206587,"subject_id":"88345","group":"Group1","full_date":"2025-12-04T21:16:41.443Z","date":"2025-12-04","time":"21:16:41"},{"rt":null,"stimulus":"<p style=\"font-size: 50px; margin: 0; text-align: center;\">+</p>","response":null,"trial_type":"html-keyboard-response","trial_index":9,"plugin_version":"2.1.0","time_elapsed":207590,"subject_id":"88345","group":"Group1","full_date":"2025-12-04T21:16:41.443Z","date":"2025-12-04","time":"21:16:41"},{"task":"memory_phase","broad_category":"S","image_png":"S_Sandstone_16.png","image_id":464,"category_name":"Sandstone","category":29,"distinct_rating":1.93,"distinct_type":"Bottom","rt":null,"stimulus":"Stimuli_Rocks480/S_Sandstone_16.png","response":null,"trial_type":"image-keyboard-response","trial_index":10,"plugin_version":"2.1.0","time_elapsed":210104,"subject_id":"88345","group":"Group1","full_date":"2025-12-04T21:16:41.443Z","date":"2025-12-04","time":"21:16:41"},{"rt":null,"stimulus":"<p style=\"font-size: 50px; margin: 0; text-align: center;\">+</p>","response":null,"trial_type":"html-keyboard-response","trial_index":11,"plugin_version":"2.1.0","time_elapsed":211107,"subject_id":"88345","group":"Group1","full_date":"2025-12-04T21:16:41.443Z","date":"2025-12-04","time":"21:16:41"},{"task":"memory_phase","broad_category":"I","image_png":"I_Rhyolite_16.png","image_id":160,"category_name":"Rhyolite","category":10,"distinct_rating":2.19,"distinct_type":"Bottom","rt":null,"stimulus":"Stimuli_Rocks480/I_Rhyolite_16.png","response":null,"trial_type":"image-keyboard-response","trial_index":12,"plugin_version":"2.1.0","time_elapsed":213623,"subject_id":"88345","group":"Group1","full_date":"2025-12-04T21:16:41.443Z","date":"2025-12-04","time":"21:16:41"},{"rt":null,"stimulus":"<p style=\"font-size: 50px; margin: 0; text-align: center;\">+</p>","response":null,"trial_type":"html-keyboard-response","trial_index":13,"plugin_version":"2.1.0","time_elapsed":214626,"subject_id":"88345","group":"Group1","full_date":"2025-12-04T21:16:41.443Z","date":"2025-12-04","time":"21:16:41"},{"task":"memory_phase","broad_category":"S","image_png":"S_Dolomite_14.png","image_id":398,"category_name":"Dolomite","category":25,"distinct_rating":1.43,"distinct_type":"Bottom","rt":null,"stimulus":"Stimuli_Rocks480/S_Dolomite_14.png","response":null,"trial_type":"image-keyboard-response","trial_index":14,"plugin_version":"2.1.0","time_elapsed":217141,"subject_id":"88345","group":"Group1","full_date":"2025-12-04T21:16:41.443Z","date":"2025-12-04","time":"21:16:41"},{"rt":null,"stimulus":"<p style=\"font-size: 50px; margin: 0; text-align: center;\">+</p>","response":null,"trial_type":"html-keyboard-response","trial_index":15,"plugin_version":"2.1.0","time_elapsed":218143,"subject_id":"88345","group":"Group1","full_date":"2025-12-04T21:16:41.443Z","date":"2025-12-04","time":"21:16:41"},{"task":"memory_phase","broad_category":"I","image_png":"I_Pumice_12.png","image_id":140,"category_name":"Pumice","category":9,"distinct_rating":2.97,"distinct_type":"Bottom","rt":null,"stimulus":"Stimuli_Rocks480/I_Pumice_12.png","response":null,"trial_type":"image-keyboard-response","trial_index":16,"plugin_version":"2.1.0","time_elapsed":220655,"subject_id":"88345","group":"Group1","full_date":"2025-12-04T21:16:41.443Z","date":"2025-12-04","time":"21:16:41"},{"rt":null,"stimulus":"<p style=\"font-size: 50px; margin: 0; text-align: center;\">+</p>","response":null,"trial_type":"html-keyboard-response","trial_index":17,"plugin_version":"2.1.0","time_elapsed":221658,"subject_id":"88345","group":"Group1","full_date":"2025-12-04T21:16:41.443Z","date":"2025-12-04","time":"21:16:41"},{"task":"memory_phase","broad_category":"S","image_png":"S_Dolomite_13.png","image_id":397,"category_name":"Dolomite","category":25,"distinct_rating":1.77,"distinct_type":"Bottom","rt":null,"stimulus":"Stimuli_Rocks480/S_Dolomite_13.png","response":null,"trial_type":"image-keyboard-response","trial_index":18,"plugin_version":"2.1.0","time_elapsed":224173,"subject_id":"88345","group":"Group1","full_date":"2025-12-04T21:16:41.443Z","date":"2025-12-04","time":"21:16:41"},{"rt":null,"stimulus":"<p style=\"font-size: 50px; margin: 0; text-align: center;\">+</p>","response":null,"trial_type":"html-keyboard-response","trial_index":19,"plugin_version":"2.1.0","time_elapsed":225176,"subject_id":"88345","group":"Group1","full_date":"2025-12-04T21:16:41.443Z","date":"2025-12-04","time":"21:16:41"},{"task":"memory_phase","broad_category":"M","image_png":"M_Phyllite_03.png","image_id":259,"category_name":"Phyllite","category":17,"distinct_rating":2.5,"distinct_type":"Bottom","rt":null,"stimulus":"Stimuli_Rocks480/M_Phyllite_03.png","response":null,"trial_type":"image-keyboard-response","trial_index":20,"plugin_version":"2.1.0","time_elapsed":227695,"subject_id":"88345","group":"Group1","full_date":"2025-12-04T21:16:41.443Z","date":"2025-12-04","time":"21:16:41"},{"rt":null,"stimulus":"<p style=\"font-size: 50px; margin: 0; text-align: center;\">+</p>","response":null,"trial_type":"html-keyboard-response","trial_index":21,"plugin_version":"2.1.0","time_elapsed":228701,"subject_id":"88345","group":"Group1","full_date":"2025-12-04T21:16:41.443Z","date":"2025-12-04","time":"21:16:41"},{"task":"memory_phase","broad_category":"M","image_png":"M_Phyllite_10.png","image_id":266,"category_name":"Phyllite","category":17,"distinct_rating":2.6,"distinct_type":"Bottom","rt":null,"stimulus":"Stimuli_Rocks480/M_Phyllite_10.png","response":null,"trial_type":"image-keyboard-response","trial_index":22,"plugin_version":"2.1.0","time_elapsed":231214,"subject_id":"88345","group":"Group1","full_date":"2025-12-04T21:16:41.443Z","date":"2025-12-04","time":"21:16:41"},{"rt":null,"stimulus":"<p style=\"font-size: 50px; margin: 0; text-align: center;\">+</p>","response":null,"trial_type":"html-keyboard-response","trial_index":23,"plugin_version":"2.1.0","time_elapsed":232217,"subject_id":"88345","group":"Group1","full_date":"2025-12-04T21:16:41.443Z","date":"2025-12-04","time":"21:16:41"},{"task":"memory_phase","broad_category":"I","image_png":"I_Diorite_05.png","image_id":37,"category_name":"Diorite","category":3,"distinct_rating":3.08,"distinct_type":"Bottom","rt":null,"stimulus":"Stimuli_Rocks480/I_Diorite_05.png","response":null,"trial_type":"image-keyboard-response","trial_index":24,"plugin_version":"2.1.0","time_elapsed":234733,"subject_id":"88345","group":"Group1","full_date":"2025-12-04T21:16:41.443Z","date":"2025-12-04","time":"21:16:41"},{"rt":null,"stimulus":"<p style=\"font-size: 50px; margin: 0; text-align: center;\">+</p>","response":null,"trial_type":"html-keyboard-response","trial_index":25,"plugin_version":"2.1.0","time_elapsed":235736,"subject_id":"88345","group":"Group1","full_date":"2025-12-04T21:16:41.443Z","date":"2025-12-04","time":"21:16:41"},{"task":"memory_phase","broad_category":"I","image_png":"I_Obsidian_05.png","image_id":85,"category_name":"Obsidian","category":6,"distinct_rating":7.32,"distinct_type":"Top","rt":null,"stimulus":"Stimuli_Rocks480/I_Obsidian_05.png","response":null,"trial_type":"image-keyboard-response","trial_index":26,"plugin_version":"2.1.0","time_elapsed":238255,"subject_id":"88345","group":"Group1","full_date":"2025-12-04T21:16:41.443Z","date":"2025-12-04","time":"21:16:41"},{"rt":null,"stimulus":"<p style=\"font-size: 50px; margin: 0; text-align: center;\">+</p>","response":null,"trial_type":"html-keyboard-response","trial_index":27,"plugin_version":"2.1.0","time_elapsed":239258,"subject_id":"88345","group":"Group1","full_date":"2025-12-04T21:16:41.443Z","date":"2025-12-04","time":"21:16:41"},{"task":"memory_phase","broad_category":"I","image_png":"I_Rhyolite_11.png","image_id":155,"category_name":"Rhyolite","category":10,"distinct_rating":1.73,"distinct_type":"Bottom","rt":null,"stimulus":"Stimuli_Rocks480/I_Rhyolite_11.png","response":null,"trial_type":"image-keyboard-response","trial_index":28,"plugin_version":"2.1.0","time_elapsed":241775,"subject_id":"88345","group":"Group1","full_date":"2025-12-04T21:16:41.443Z","date":"2025-12-04","time":"21:16:41"},{"rt":null,"stimulus":"<p style=\"font-size: 50px; margin: 0; text-align: center;\">+</p>","response":null,"trial_type":"html-keyboard-response","trial_index":29,"plugin_version":"2.1.0","time_elapsed":242778,"subject_id":"88345","group":"Group1","full_date":"2025-12-04T21:16:41.443Z","date":"2025-12-04","time":"21:16:41"},{"task":"memory_phase","broad_category":"I","image_png":"I_Basalt_09.png","image_id":25,"category_name":"Basalt","category":2,"distinct_rating":1.89,"distinct_type":"Bottom","rt":null,"stimulus":"Stimuli_Rocks480/I_Basalt_09.png","response":null,"trial_type":"image-keyboard-response","trial_index":30,"plugin_version":"2.1.0","time_elapsed":245292,"subject_id":"88345","group":"Group1","full_date":"2025-12-04T21:16:41.443Z","date":"2025-12-04","time":"21:16:41"},{"rt":null,"stimulus":"<p style=\"font-size: 50px; margin: 0; text-align: center;\">+</p>","response":null,"trial_type":"html-keyboard-response","trial_index":31,"plugin_version":"2.1.0","time_elapsed":246295,"subject_id":"88345","group":"Group1","full_date":"2025-12-04T21:16:41.443Z","date":"2025-12-04","time":"21:16:41"},{"task":"memory_phase","broad_category":"S","image_png":"S_Breccia_11.png","image_id":347,"category_name":"Breccia","category":22,"distinct_rating":6.7,"distinct_type":"Top","rt":null,"stimulus":"Stimuli_Rocks480/S_Breccia_11.png","response":null,"trial_type":"image-keyboard-response","trial_index":32,"plugin_version":"2.1.0","time_elapsed":248819,"subject_id":"88345","group":"Group1","full_date":"2025-12-04T21:16:41.443Z","date":"2025-12-04","time":"21:16:41"},{"rt":null,"stimulus":"<p style=\"font-size: 50px; margin: 0; text-align: center;\">+</p>","response":null,"trial_type":"html-keyboard-response","trial_index":33,"plugin_version":"2.1.0","time_elapsed":249822,"subject_id":"88345","group":"Group1","full_date":"2025-12-04T21:16:41.443Z","date":"2025-12-04","time":"21:16:41"},{"task":"memory_phase","broad_category":"M","image_png":"M_Quartzite_13.png","image_id":285,"category_name":"Quartzite","category":18,"distinct_rating":2.27,"distinct_type":"Bottom","rt":null,"stimulus":"Stimuli_Rocks480/M_Quartzite_13.png","response":null,"trial_type":"image-keyboard-response","trial_index":34,"plugin_version":"2.1.0","time_elapsed":252336,"subject_id":"88345","group":"Group1","full_date":"2025-12-04T21:16:41.443Z","date":"2025-12-04","time":"21:16:41"},{"rt":null,"stimulus":"<p style=\"font-size: 50px; margin: 0; text-align: center;\">+</p>","response":null,"trial_type":"html-keyboard-response","trial_index":35,"plugin_version":"2.1.0","time_elapsed":253339,"subject_id":"88345","group":"Group1","full_date":"2025-12-04T21:16:41.443Z","date":"2025-12-04","time":"21:16:41"},{"task":"memory_phase","broad_category":"S","image_png":"S_Sandstone_03.png","image_id":451,"category_name":"Sandstone","category":29,"distinct_rating":1.86,"distinct_type":"Bottom","rt":null,"stimulus":"Stimuli_Rocks480/S_Sandstone_03.png","response":null,"trial_type":"image-keyboard-response","trial_index":36,"plugin_version":"2.1.0","time_elapsed":255855,"subject_id":"88345","group":"Group1","full_date":"2025-12-04T21:16:41.443Z","date":"2025-12-04","time":"21:16:41"},{"rt":null,"stimulus":"<p style=\"font-size: 50px; margin: 0; text-align: center;\">+</p>","response":null,"trial_type":"html-keyboard-response","trial_index":37,"plugin_version":"2.1.0","time_elapsed":256857,"subject_id":"88345","group":"Group1","full_date":"2025-12-04T21:16:41.443Z","date":"2025-12-04","time":"21:16:41"},{"task":"memory_phase","broad_category":"M","image_png":"M_Phyllite_07.png","image_id":263,"category_name":"Phyllite","category":17,"distinct_rating":2.59,"distinct_type":"Bottom","rt":null,"stimulus":"Stimuli_Rocks480/M_Phyllite_07.png","response":null,"trial_type":"image-keyboard-response","trial_index":38,"plugin_version":"2.1.0","time_elapsed":259374,"subject_id":"88345","group":"Group1","full_date":"2025-12-04T21:16:41.443Z","date":"2025-12-04","time":"21:16:41"},{"rt":null,"stimulus":"<p style=\"font-size: 50px; margin: 0; text-align: center;\">+</p>","response":null,"trial_type":"html-keyboard-response","trial_index":39,"plugin_version":"2.1.0","time_elapsed":260377,"subject_id":"88345","group":"Group1","full_date":"2025-12-04T21:16:41.443Z","date":"2025-12-04","time":"21:16:41"},{"task":"memory_phase","broad_category":"M","image_png":"M_Slate_15.png","image_id":319,"category_name":"Slate","category":20,"distinct_rating":2.13,"distinct_type":"Bottom","rt":null,"stimulus":"Stimuli_Rocks480/M_Slate_15.png","response":null,"trial_type":"image-keyboard-response","trial_index":40,"plugin_version":"2.1.0","time_elapsed":262889,"subject_id":"88345","group":"Group1","full_date":"2025-12-04T21:16:41.443Z","date":"2025-12-04","time":"21:16:41"},{"rt":null,"stimulus":"<p style=\"font-size: 50px; margin: 0; text-align: center;\">+</p>","response":null,"trial_type":"html-keyboard-response","trial_index":41,"plugin_version":"2.1.0","time_elapsed":263891,"subject_id":"88345","group":"Group1","full_date":"2025-12-04T21:16:41.443Z","date":"2025-12-04","time":"21:16:41"},{"task":"memory_phase","broad_category":"I","image_png":"I_Pumice_08.png","image_id":136,"category_name":"Pumice","category":9,"distinct_rating":3.1,"distinct_type":"Bottom","rt":null,"stimulus":"Stimuli_Rocks480/I_Pumice_08.png","response":null,"trial_type":"image-keyboard-response","trial_index":42,"plugin_version":"2.1.0","time_elapsed":266406,"subject_id":"88345","group":"Group1","full_date":"2025-12-04T21:16:41.443Z","date":"2025-12-04","time":"21:16:41"},{"rt":null,"stimulus":"<p style=\"font-size: 50px; margin: 0; text-align: center;\">+</p>","response":null,"trial_type":"html-keyboard-response","trial_index":43,"plugin_version":"2.1.0","time_elapsed":267408,"subject_id":"88345","group":"Group1","full_date":"2025-12-04T21:16:41.443Z","date":"2025-12-04","time":"21:16:41"},{"task":"memory_phase","broad_category":"M","image_png":"M_Marble_06.png","image_id":230,"category_name":"Marble","category":15,"distinct_rating":3.4,"distinct_type":"Bottom","rt":null,"stimulus":"Stimuli_Rocks480/M_Marble_06.png","response":null,"trial_type":"image-keyboard-response","trial_index":44,"plugin_version":"2.1.0","time_elapsed":269923,"subject_id":"88345","group":"Group1","full_date":"2025-12-04T21:16:41.443Z","date":"2025-12-04","time":"21:16:41"},{"rt":null,"stimulus":"<p style=\"font-size: 50px; margin: 0; text-align: center;\">+</p>","response":null,"trial_type":"html-keyboard-response","trial_index":45,"plugin_version":"2.1.0","time_elapsed":270925,"subject_id":"88345","group":"Group1","full_date":"2025-12-04T21:16:41.443Z","date":"2025-12-04","time":"21:16:41"},{"task":"memory_phase","broad_category":"I","image_png":"I_Rhyolite_14.png","image_id":158,"category_name":"Rhyolite","category":10,"distinct_rating":2.59,"distinct_type":"Bottom","rt":null,"stimulus":"Stimuli_Rocks480/I_Rhyolite_14.png","response":null,"trial_type":"image-keyboard-response","trial_index":46,"plugin_version":"2.1.0","time_elapsed":273443,"subject_id":"88345","group":"Group1","full_date":"2025-12-04T21:16:41.443Z","date":"2025-12-04","time":"21:16:41"},{"rt":null,"stimulus":"<p style=\"font-size: 50px; margin: 0; text-align: center;\">+</p>","response":null,"trial_type":"html-keyboard-response","trial_index":47,"plugin_version":"2.1.0","time_elapsed":274446,"subject_id":"88345","group":"Group1","full_date":"2025-12-04T21:16:41.443Z","date":"2025-12-04","time":"21:16:41"},{"task":"memory_phase","broad_category":"M","image_png":"M_Marble_16.png","image_id":240,"category_name":"Marble","category":15,"distinct_rating":2.57,"distinct_type":"Bottom","rt":null,"stimulus":"Stimuli_Rocks480/M_Marble_16.png","response":null,"trial_type":"image-keyboard-response","trial_index":48,"plugin_version":"2.1.0","time_elapsed":276963,"subject_id":"88345","group":"Group1","full_date":"2025-12-04T21:16:41.443Z","date":"2025-12-04","time":"21:16:41"},{"rt":null,"stimulus":"<p style=\"font-size: 50px; margin: 0; text-align: center;\">+</p>","response":null,"trial_type":"html-keyboard-response","trial_index":49,"plugin_version":"2.1.0","time_elapsed":277965,"subject_id":"88345","group":"Group1","full_date":"2025-12-04T21:16:41.443Z","date":"2025-12-04","time":"21:16:41"},{"task":"memory_phase","broad_category":"I","image_png":"I_Gabbro_08.png","image_id":56,"category_name":"Gabbro","category":4,"distinct_rating":3.02,"distinct_type":"Bottom","rt":null,"stimulus":"Stimuli_Rocks480/I_Gabbro_08.png","response":null,"trial_type":"image-keyboard-response","trial_index":50,"plugin_version":"2.1.0","time_elapsed":280479,"subject_id":"88345","group":"Group1","full_date":"2025-12-04T21:16:41.443Z","date":"2025-12-04","time":"21:16:41"},{"rt":null,"stimulus":"<p style=\"font-size: 50px; margin: 0; text-align: center;\">+</p>","response":null,"trial_type":"html-keyboard-response","trial_index":51,"plugin_version":"2.1.0","time_elapsed":281481,"subject_id":"88345","group":"Group1","full_date":"2025-12-04T21:16:41.443Z","date":"2025-12-04","time":"21:16:41"},{"task":"memory_phase","broad_category":"M","image_png":"M_Marble_04.png","image_id":228,"category_name":"Marble","category":15,"distinct_rating":3.15,"distinct_type":"Bottom","rt":null,"stimulus":"Stimuli_Rocks480/M_Marble_04.png","response":null,"trial_type":"image-keyboard-response","trial_index":52,"plugin_version":"2.1.0","time_elapsed":283996,"subject_id":"88345","group":"Group1","full_date":"2025-12-04T21:16:41.443Z","date":"2025-12-04","time":"21:16:41"},{"rt":null,"stimulus":"<p style=\"font-size: 50px; margin: 0; text-align: center;\">+</p>","response":null,"trial_type":"html-keyboard-response","trial_index":53,"plugin_version":"2.1.0","time_elapsed":284999,"subject_id":"88345","group":"Group1","full_date":"2025-12-04T21:16:41.443Z","date":"2025-12-04","time":"21:16:41"},{"task":"memory_phase","broad_category":"M","image_png":"M_Slate_11.png","image_id":315,"category_name":"Slate","category":20,"distinct_rating":2.75,"distinct_type":"Bottom","rt":null,"stimulus":"Stimuli_Rocks480/M_Slate_11.png","response":null,"trial_type":"image-keyboard-response","trial_index":54,"plugin_version":"2.1.0","time_elapsed":287514,"subject_id":"88345","group":"Group1","full_date":"2025-12-04T21:16:41.443Z","date":"2025-12-04","time":"21:16:41"},{"rt":1379,"stimulus":"<p style=\"max-width: 760px; margin: auto; font-size: 35px; line-height: 1.5;\">Press SPACE to continue study phase</p>","response":" ","trial_type":"html-keyboard-response","trial_index":55,"plugin_version":"2.1.0","time_elapsed":288895,"subject_id":"88345","group":"Group1","full_date":"2025-12-04T21:16:41.443Z","date":"2025-12-04","time":"21:16:41"},{"rt":null,"stimulus":"<p style=\"font-size: 50px; margin: 0; text-align: center;\">+</p>","response":null,"trial_type":"html-keyboard-response","trial_index":56,"plugin_version":"2.1.0","time_elapsed":289898,"subject_id":"88345","group":"Group1","full_date":"2025-12-04T21:16:41.443Z","date":"2025-12-04","time":"21:16:41"},{"task":"memory_phase","broad_category":"S","image_png":"S_Rock Gypsum_04.png","image_id":420,"category_name":"Rock Gypsum","category":27,"distinct_rating":7.61,"distinct_type":"Top","rt":null,"stimulus":"Stimuli_Rocks480/S_Rock Gypsum_04.png","response":null,"trial_type":"image-keyboard-response","trial_index":57,"plugin_version":"2.1.0","time_elapsed":292419,"subject_id":"88345","group":"Group1","full_date":"2025-12-04T21:16:41.443Z","date":"2025-12-04","time":"21:16:41"},{"rt":null,"stimulus":"<p style=\"font-size: 50px; margin: 0; text-align: center;\">+</p>","response":null,"trial_type":"html-keyboard-response","trial_index":58,"plugin_version":"2.1.0","time_elapsed":293421,"subject_id":"88345","group":"Group1","full_date":"2025-12-04T21:16:41.443Z","date":"2025-12-04","time":"21:16:41"},{"task":"memory_phase","broad_category":"I","image_png":"I_Basalt_02.png","image_id":18,"category_name":"Basalt","category":2,"distinct_rating":1.84,"distinct_type":"Bottom","rt":null,"stimulus":"Stimuli_Rocks480/I_Basalt_02.png","response":null,"trial_type":"image-keyboard-response","trial_index":59,"plugin_version":"2.1.0","time_elapsed":295937,"subject_id":"88345","group":"Group1","full_date":"2025-12-04T21:16:41.443Z","date":"2025-12-04","time":"21:16:41"},{"rt":null,"stimulus":"<p style=\"font-size: 50px; margin: 0; text-align: center;\">+</p>","response":null,"trial_type":"html-keyboard-response","trial_index":60,"plugin_version":"2.1.0","time_elapsed":296940,"subject_id":"88345","group":"Group1","full_date":"2025-12-04T21:16:41.443Z","date":"2025-12-04","time":"21:16:41"},{"task":"memory_phase","broad_category":"M","image_png":"M_Gneiss_05.png","image_id":197,"category_name":"Gneiss","category":13,"distinct_rating":2.97,"distinct_type":"Bottom","rt":null,"stimulus":"Stimuli_Rocks480/M_Gneiss_05.png","response":null,"trial_type":"image-keyboard-response","trial_index":61,"plugin_version":"2.1.0","time_elapsed":299461,"subject_id":"88345","group":"Group1","full_date":"2025-12-04T21:16:41.443Z","date":"2025-12-04","time":"21:16:41"},{"rt":null,"stimulus":"<p style=\"font-size: 50px; margin: 0; text-align: center;\">+</p>","response":null,"trial_type":"html-keyboard-response","trial_index":62,"plugin_version":"2.1.0","time_elapsed":300464,"subject_id":"88345","group":"Group1","full_date":"2025-12-04T21:16:41.443Z","date":"2025-12-04","time":"21:16:41"},{"task":"memory_phase","broad_category":"S","image_png":"S_Chert_10.png","image_id":362,"category_name":"Chert","category":23,"distinct_rating":7.17,"distinct_type":"Top","rt":null,"stimulus":"Stimuli_Rocks480/S_Chert_10.png","response":null,"trial_type":"image-keyboard-response","trial_index":63,"plugin_version":"2.1.0","time_elapsed":302980,"subject_id":"88345","group":"Group1","full_date":"2025-12-04T21:16:41.443Z","date":"2025-12-04","time":"21:16:41"},{"rt":null,"stimulus":"<p style=\"font-size: 50px; margin: 0; text-align: center;\">+</p>","response":null,"trial_type":"html-keyboard-response","trial_index":64,"plugin_version":"2.1.0","time_elapsed":303983,"subject_id":"88345","group":"Group1","full_date":"2025-12-04T21:16:41.443Z","date":"2025-12-04","time":"21:16:41"},{"task":"memory_phase","broad_category":"M","image_png":"M_Gneiss_13.png","image_id":205,"category_name":"Gneiss","category":13,"distinct_rating":3.26,"distinct_type":"Bottom","rt":null,"stimulus":"Stimuli_Rocks480/M_Gneiss_13.png","response":null,"trial_type":"image-keyboard-response","trial_index":65,"plugin_version":"2.1.0","time_elapsed":306497,"subject_id":"88345","group":"Group1","full_date":"2025-12-04T21:16:41.443Z","date":"2025-12-04","time":"21:16:41"},{"rt":null,"stimulus":"<p style=\"font-size: 50px; margin: 0; text-align: center;\">+</p>","response":null,"trial_type":"html-keyboard-response","trial_index":66,"plugin_version":"2.1.0","time_elapsed":307499,"subject_id":"88345","group":"Group1","full_date":"2025-12-04T21:16:41.443Z","date":"2025-12-04","time":"21:16:41"},{"task":"memory_phase","broad_category":"I","image_png":"I_Andesite_06.png","image_id":6,"category_name":"Andesite","category":1,"distinct_rating":3.17,"distinct_type":"Bottom","rt":null,"stimulus":"Stimuli_Rocks480/I_Andesite_06.png","response":null,"trial_type":"image-keyboard-response","trial_index":67,"plugin_version":"2.1.0","time_elapsed":310018,"subject_id":"88345","group":"Group1","full_date":"2025-12-04T21:16:41.443Z","date":"2025-12-04","time":"21:16:41"},{"rt":null,"stimulus":"<p style=\"font-size: 50px; margin: 0; text-align: center;\">+</p>","response":null,"trial_type":"html-keyboard-response","trial_index":68,"plugin_version":"2.1.0","time_elapsed":311021,"subject_id":"88345","group":"Group1","full_date":"2025-12-04T21:16:41.443Z","date":"2025-12-04","time":"21:16:41"},{"task":"memory_phase","broad_category":"M","image_png":"M_Quartzite_05.png","image_id":277,"category_name":"Quartzite","category":18,"distinct_rating":2.23,"distinct_type":"Bottom","rt":null,"stimulus":"Stimuli_Rocks480/M_Quartzite_05.png","response":null,"trial_type":"image-keyboard-response","trial_index":69,"plugin_version":"2.1.0","time_elapsed":313538,"subject_id":"88345","group":"Group1","full_date":"2025-12-04T21:16:41.443Z","date":"2025-12-04","time":"21:16:41"},{"rt":null,"stimulus":"<p style=\"font-size: 50px; margin: 0; text-align: center;\">+</p>","response":null,"trial_type":"html-keyboard-response","trial_index":70,"plugin_version":"2.1.0","time_elapsed":314541,"subject_id":"88345","group":"Group1","full_date":"2025-12-04T21:16:41.443Z","date":"2025-12-04","time":"21:16:41"},{"task":"memory_phase","broad_category":"M","image_png":"M_Gneiss_06.png","image_id":198,"category_name":"Gneiss","category":13,"distinct_rating":2.65,"distinct_type":"Bottom","rt":null,"stimulus":"Stimuli_Rocks480/M_Gneiss_06.png","response":null,"trial_type":"image-keyboard-response","trial_index":71,"plugin_version":"2.1.0","time_elapsed":317066,"subject_id":"88345","group":"Group1","full_date":"2025-12-04T21:16:41.443Z","date":"2025-12-04","time":"21:16:41"},{"rt":null,"stimulus":"<p style=\"font-size: 50px; margin: 0; text-align: center;\">+</p>","response":null,"trial_type":"html-keyboard-response","trial_index":72,"plugin_version":"2.1.0","time_elapsed":318069,"subject_id":"88345","group":"Group1","full_date":"2025-12-04T21:16:41.443Z","date":"2025-12-04","time":"21:16:41"},{"task":"memory_phase","broad_category":"M","image_png":"M_Quartzite_08.png","image_id":280,"category_name":"Quartzite","category":18,"distinct_rating":2.15,"distinct_type":"Bottom","rt":null,"stimulus":"Stimuli_Rocks480/M_Quartzite_08.png","response":null,"trial_type":"image-keyboard-response","trial_index":73,"plugin_version":"2.1.0","time_elapsed":320587,"subject_id":"88345","group":"Group1","full_date":"2025-12-04T21:16:41.443Z","date":"2025-12-04","time":"21:16:41"},{"rt":null,"stimulus":"<p style=\"font-size: 50px; margin: 0; text-align: center;\">+</p>","response":null,"trial_type":"html-keyboard-response","trial_index":74,"plugin_version":"2.1.0","time_elapsed":321589,"subject_id":"88345","group":"Group1","full_date":"2025-12-04T21:16:41.443Z","date":"2025-12-04","time":"21:16:41"},{"task":"memory_phase","broad_category":"S","image_png":"S_Conglomerate_05.png","image_id":373,"category_name":"Conglomerate","category":24,"distinct_rating":7.32,"distinct_type":"Top","rt":null,"stimulus":"Stimuli_Rocks480/S_Conglomerate_05.png","response":null,"trial_type":"image-keyboard-response","trial_index":75,"plugin_version":"2.1.0","time_elapsed":324106,"subject_id":"88345","group":"Group1","full_date":"2025-12-04T21:16:41.443Z","date":"2025-12-04","time":"21:16:41"},{"rt":null,"stimulus":"<p style=\"font-size: 50px; margin: 0; text-align: center;\">+</p>","response":null,"trial_type":"html-keyboard-response","trial_index":76,"plugin_version":"2.1.0","time_elapsed":325108,"subject_id":"88345","group":"Group1","full_date":"2025-12-04T21:16:41.443Z","date":"2025-12-04","time":"21:16:41"},{"task":"memory_phase","broad_category":"I","image_png":"I_Basalt_01.png","image_id":17,"category_name":"Basalt","category":2,"distinct_rating":1.92,"distinct_type":"Bottom","rt":null,"stimulus":"Stimuli_Rocks480/I_Basalt_01.png","response":null,"trial_type":"image-keyboard-response","trial_index":77,"plugin_version":"2.1.0","time_elapsed":327629,"subject_id":"88345","group":"Group1","full_date":"2025-12-04T21:16:41.443Z","date":"2025-12-04","time":"21:16:41"},{"rt":null,"stimulus":"<p style=\"font-size: 50px; margin: 0; text-align: center;\">+</p>","response":null,"trial_type":"html-keyboard-response","trial_index":78,"plugin_version":"2.1.0","time_elapsed":328631,"subject_id":"88345","group":"Group1","full_date":"2025-12-04T21:16:41.443Z","date":"2025-12-04","time":"21:16:41"},{"task":"memory_phase","broad_category":"I","image_png":"I_Pumice_11.png","image_id":139,"category_name":"Pumice","category":9,"distinct_rating":1.74,"distinct_type":"Bottom","rt":null,"stimulus":"Stimuli_Rocks480/I_Pumice_11.png","response":null,"trial_type":"image-keyboard-response","trial_index":79,"plugin_version":"2.1.0","time_elapsed":331144,"subject_id":"88345","group":"Group1","full_date":"2025-12-04T21:16:41.443Z","date":"2025-12-04","time":"21:16:41"},{"rt":null,"stimulus":"<p style=\"font-size: 50px; margin: 0; text-align: center;\">+</p>","response":null,"trial_type":"html-keyboard-response","trial_index":80,"plugin_version":"2.1.0","time_elapsed":332147,"subject_id":"88345","group":"Group1","full_date":"2025-12-04T21:16:41.443Z","date":"2025-12-04","time":"21:16:41"},{"task":"memory_phase","broad_category":"I","image_png":"I_Gabbro_16.png","image_id":64,"category_name":"Gabbro","category":4,"distinct_rating":2.52,"distinct_type":"Bottom","rt":null,"stimulus":"Stimuli_Rocks480/I_Gabbro_16.png","response":null,"trial_type":"image-keyboard-response","trial_index":81,"plugin_version":"2.1.0","time_elapsed":334665,"subject_id":"88345","group":"Group1","full_date":"2025-12-04T21:16:41.443Z","date":"2025-12-04","time":"21:16:41"},{"rt":null,"stimulus":"<p style=\"font-size: 50px; margin: 0; text-align: center;\">+</p>","response":null,"trial_type":"html-keyboard-response","trial_index":82,"plugin_version":"2.1.0","time_elapsed":335668,"subject_id":"88345","group":"Group1","full_date":"2025-12-04T21:16:41.443Z","date":"2025-12-04","time":"21:16:41"},{"task":"memory_phase","broad_category":"S","image_png":"S_Shale_01.png","image_id":465,"category_name":"Shale","category":30,"distinct_rating":2.7,"distinct_type":"Bottom","rt":null,"stimulus":"Stimuli_Rocks480/S_Shale_01.png","response":null,"trial_type":"image-keyboard-response","trial_index":83,"plugin_version":"2.1.0","time_elapsed":338182,"subject_id":"88345","group":"Group1","full_date":"2025-12-04T21:16:41.443Z","date":"2025-12-04","time":"21:16:41"},{"rt":null,"stimulus":"<p style=\"font-size: 50px; margin: 0; text-align: center;\">+</p>","response":null,"trial_type":"html-keyboard-response","trial_index":84,"plugin_version":"2.1.0","time_elapsed":339185,"subject_id":"88345","group":"Group1","full_date":"2025-12-04T21:16:41.443Z","date":"2025-12-04","time":"21:16:41"},{"task":"memory_phase","broad_category":"I","image_png":"I_Diorite_03.png","image_id":35,"category_name":"Diorite","category":3,"distinct_rating":3.14,"distinct_type":"Bottom","rt":null,"stimulus":"Stimuli_Rocks480/I_Diorite_03.png","response":null,"trial_type":"image-keyboard-response","trial_index":85,"plugin_version":"2.1.0","time_elapsed":341704,"subject_id":"88345","group":"Group1","full_date":"2025-12-04T21:16:41.443Z","date":"2025-12-04","time":"21:16:41"},{"rt":null,"stimulus":"<p style=\"font-size: 50px; margin: 0; text-align: center;\">+</p>","response":null,"trial_type":"html-keyboard-response","trial_index":86,"plugin_version":"2.1.0","time_elapsed":342706,"subject_id":"88345","group":"Group1","full_date":"2025-12-04T21:16:41.443Z","date":"2025-12-04","time":"21:16:41"},{"task":"memory_phase","broad_category":"I","image_png":"I_Andesite_08.png","image_id":8,"category_name":"Andesite","category":1,"distinct_rating":1.95,"distinct_type":"Bottom","rt":null,"stimulus":"Stimuli_Rocks480/I_Andesite_08.png","response":null,"trial_type":"image-keyboard-response","trial_index":87,"plugin_version":"2.1.0","time_elapsed":345223,"subject_id":"88345","group":"Group1","full_date":"2025-12-04T21:16:41.443Z","date":"2025-12-04","time":"21:16:41"},{"rt":null,"stimulus":"<p style=\"font-size: 50px; margin: 0; text-align: center;\">+</p>","response":null,"trial_type":"html-keyboard-response","trial_index":88,"plugin_version":"2.1.0","time_elapsed":346226,"subject_id":"88345","group":"Group1","full_date":"2025-12-04T21:16:41.443Z","date":"2025-12-04","time":"21:16:41"},{"task":"memory_phase","broad_category":"I","image_png":"I_Andesite_10.png","image_id":10,"category_name":"Andesite","category":1,"distinct_rating":3.15,"distinct_type":"Bottom","rt":null,"stimulus":"Stimuli_Rocks480/I_Andesite_10.png","response":null,"trial_type":"image-keyboard-response","trial_index":89,"plugin_version":"2.1.0","time_elapsed":348738,"subject_id":"88345","group":"Group1","full_date":"2025-12-04T21:16:41.443Z","date":"2025-12-04","time":"21:16:41"},{"rt":null,"stimulus":"<p style=\"font-size: 50px; margin: 0; text-align: center;\">+</p>","response":null,"trial_type":"html-keyboard-response","trial_index":90,"plugin_version":"2.1.0","time_elapsed":349741,"subject_id":"88345","group":"Group1","full_date":"2025-12-04T21:16:41.443Z","date":"2025-12-04","time":"21:16:41"},{"task":"memory_phase","broad_category":"I","image_png":"I_Diorite_04.png","image_id":36,"category_name":"Diorite","category":3,"distinct_rating":2.98,"distinct_type":"Bottom","rt":null,"stimulus":"Stimuli_Rocks480/I_Diorite_04.png","response":null,"trial_type":"image-keyboard-response","trial_index":91,"plugin_version":"2.1.0","time_elapsed":352257,"subject_id":"88345","group":"Group1","full_date":"2025-12-04T21:16:41.443Z","date":"2025-12-04","time":"21:16:41"},{"rt":null,"stimulus":"<p style=\"font-size: 50px; margin: 0; text-align: center;\">+</p>","response":null,"trial_type":"html-keyboard-response","trial_index":92,"plugin_version":"2.1.0","time_elapsed":353259,"subject_id":"88345","group":"Group1","full_date":"2025-12-04T21:16:41.443Z","date":"2025-12-04","time":"21:16:41"},{"task":"memory_phase","broad_category":"I","image_png":"I_Pegmatite_16.png","image_id":112,"category_name":"Pegmatite","category":7,"distinct_rating":7.03,"distinct_type":"Top","rt":null,"stimulus":"Stimuli_Rocks480/I_Pegmatite_16.png","response":null,"trial_type":"image-keyboard-response","trial_index":93,"plugin_version":"2.1.0","time_elapsed":355775,"subject_id":"88345","group":"Group1","full_date":"2025-12-04T21:16:41.443Z","date":"2025-12-04","time":"21:16:41"},{"rt":null,"stimulus":"<p style=\"font-size: 50px; margin: 0; text-align: center;\">+</p>","response":null,"trial_type":"html-keyboard-response","trial_index":94,"plugin_version":"2.1.0","time_elapsed":356778,"subject_id":"88345","group":"Group1","full_date":"2025-12-04T21:16:41.443Z","date":"2025-12-04","time":"21:16:41"},{"task":"memory_phase","broad_category":"M","image_png":"M_Slate_03.png","image_id":307,"category_name":"Slate","category":20,"distinct_rating":1.87,"distinct_type":"Bottom","rt":null,"stimulus":"Stimuli_Rocks480/M_Slate_03.png","response":null,"trial_type":"image-keyboard-response","trial_index":95,"plugin_version":"2.1.0","time_elapsed":359294,"subject_id":"88345","group":"Group1","full_date":"2025-12-04T21:16:41.443Z","date":"2025-12-04","time":"21:16:41"},{"rt":null,"stimulus":"<p style=\"font-size: 50px; margin: 0; text-align: center;\">+</p>","response":null,"trial_type":"html-keyboard-response","trial_index":96,"plugin_version":"2.1.0","time_elapsed":360296,"subject_id":"88345","group":"Group1","full_date":"2025-12-04T21:16:41.443Z","date":"2025-12-04","time":"21:16:41"},{"task":"memory_phase","broad_category":"I","image_png":"I_Gabbro_11.png","image_id":59,"category_name":"Gabbro","category":4,"distinct_rating":1.99,"distinct_type":"Bottom","rt":null,"stimulus":"Stimuli_Rocks480/I_Gabbro_11.png","response":null,"trial_type":"image-keyboard-response","trial_index":97,"plugin_version":"2.1.0","time_elapsed":362810,"subject_id":"88345","group":"Group1","full_date":"2025-12-04T21:16:41.443Z","date":"2025-12-04","time":"21:16:41"},{"rt":null,"stimulus":"<p style=\"font-size: 50px; margin: 0; text-align: center;\">+</p>","response":null,"trial_type":"html-keyboard-response","trial_index":98,"plugin_version":"2.1.0","time_elapsed":363813,"subject_id":"88345","group":"Group1","full_date":"2025-12-04T21:16:41.443Z","date":"2025-12-04","time":"21:16:41"},{"task":"memory_phase","broad_category":"S","image_png":"S_Shale_08.png","image_id":472,"category_name":"Shale","category":30,"distinct_rating":2.55,"distinct_type":"Bottom","rt":null,"stimulus":"Stimuli_Rocks480/S_Shale_08.png","response":null,"trial_type":"image-keyboard-response","trial_index":99,"plugin_version":"2.1.0","time_elapsed":366329,"subject_id":"88345","group":"Group1","full_date":"2025-12-04T21:16:41.443Z","date":"2025-12-04","time":"21:16:41"},{"rt":null,"stimulus":"<p style=\"font-size: 50px; margin: 0; text-align: center;\">+</p>","response":null,"trial_type":"html-keyboard-response","trial_index":100,"plugin_version":"2.1.0","time_elapsed":367332,"subject_id":"88345","group":"Group1","full_date":"2025-12-04T21:16:41.443Z","date":"2025-12-04","time":"21:16:41"},{"task":"memory_phase","broad_category":"S","image_png":"S_Sandstone_15.png","image_id":463,"category_name":"Sandstone","category":29,"distinct_rating":2,"distinct_type":"Bottom","rt":null,"stimulus":"Stimuli_Rocks480/S_Sandstone_15.png","response":null,"trial_type":"image-keyboard-response","trial_index":101,"plugin_version":"2.1.0","time_elapsed":369851,"subject_id":"88345","group":"Group1","full_date":"2025-12-04T21:16:41.443Z","date":"2025-12-04","time":"21:16:41"},{"rt":null,"stimulus":"<p style=\"font-size: 50px; margin: 0; text-align: center;\">+</p>","response":null,"trial_type":"html-keyboard-response","trial_index":102,"plugin_version":"2.1.0","time_elapsed":370853,"subject_id":"88345","group":"Group1","full_date":"2025-12-04T21:16:41.443Z","date":"2025-12-04","time":"21:16:41"},{"task":"memory_phase","broad_category":"S","image_png":"S_Dolomite_12.png","image_id":396,"category_name":"Dolomite","category":25,"distinct_rating":1.85,"distinct_type":"Bottom","rt":null,"stimulus":"Stimuli_Rocks480/S_Dolomite_12.png","response":null,"trial_type":"image-keyboard-response","trial_index":103,"plugin_version":"2.1.0","time_elapsed":373368,"subject_id":"88345","group":"Group1","full_date":"2025-12-04T21:16:41.443Z","date":"2025-12-04","time":"21:16:41"},{"rt":null,"stimulus":"<p style=\"font-size: 50px; margin: 0; text-align: center;\">+</p>","response":null,"trial_type":"html-keyboard-response","trial_index":104,"plugin_version":"2.1.0","time_elapsed":374371,"subject_id":"88345","group":"Group1","full_date":"2025-12-04T21:16:41.443Z","date":"2025-12-04","time":"21:16:41"},{"task":"memory_phase","broad_category":"S","image_png":"S_Shale_12.png","image_id":476,"category_name":"Shale","category":30,"distinct_rating":2.48,"distinct_type":"Bottom","rt":null,"stimulus":"Stimuli_Rocks480/S_Shale_12.png","response":null,"trial_type":"image-keyboard-response","trial_index":105,"plugin_version":"2.1.0","time_elapsed":376887,"subject_id":"88345","group":"Group1","full_date":"2025-12-04T21:16:41.443Z","date":"2025-12-04","time":"21:16:41"},{"rt":4176,"stimulus":"<p style=\"max-width: 760px; margin: auto; font-size: 35px; line-height: 1.5;\">You have completed 1 study phase. Now, we'll show you all the images again 2 more times.<br><br>Press SPACE to continue</p>","response":" ","trial_type":"html-keyboard-response","trial_index":106,"plugin_version":"2.1.0","time_elapsed":381067,"subject_id":"88345","group":"Group1","full_date":"2025-12-04T21:16:41.443Z","date":"2025-12-04","time":"21:16:41"},{"rt":null,"stimulus":"<p style=\"font-size: 50px; margin: 0; text-align: center;\">+</p>","response":null,"trial_type":"html-keyboard-response","trial_index":107,"plugin_version":"2.1.0","time_elapsed":382070,"subject_id":"88345","group":"Group1","full_date":"2025-12-04T21:16:41.443Z","date":"2025-12-04","time":"21:16:41"},{"task":"memory_phase","broad_category":"S","image_png":"S_Sandstone_03.png","image_id":451,"category_name":"Sandstone","category":29,"distinct_rating":1.86,"distinct_type":"Bottom","rt":null,"stimulus":"Stimuli_Rocks480/S_Sandstone_03.png","response":null,"trial_type":"image-keyboard-response","trial_index":108,"plugin_version":"2.1.0","time_elapsed":384587,"subject_id":"88345","group":"Group1","full_date":"2025-12-04T21:16:41.443Z","date":"2025-12-04","time":"21:16:41"},{"rt":null,"stimulus":"<p style=\"font-size: 50px; margin: 0; text-align: center;\">+</p>","response":null,"trial_type":"html-keyboard-response","trial_index":109,"plugin_version":"2.1.0","time_elapsed":385590,"subject_id":"88345","group":"Group1","full_date":"2025-12-04T21:16:41.443Z","date":"2025-12-04","time":"21:16:41"},{"task":"memory_phase","broad_category":"I","image_png":"I_Basalt_02.png","image_id":18,"category_name":"Basalt","category":2,"distinct_rating":1.84,"distinct_type":"Bottom","rt":null,"stimulus":"Stimuli_Rocks480/I_Basalt_02.png","response":null,"trial_type":"image-keyboard-response","trial_index":110,"plugin_version":"2.1.0","time_elapsed":388093,"subject_id":"88345","group":"Group1","full_date":"2025-12-04T21:16:41.443Z","date":"2025-12-04","time":"21:16:41"},{"rt":null,"stimulus":"<p style=\"font-size: 50px; margin: 0; text-align: center;\">+</p>","response":null,"trial_type":"html-keyboard-response","trial_index":111,"plugin_version":"2.1.0","time_elapsed":389095,"subject_id":"88345","group":"Group1","full_date":"2025-12-04T21:16:41.443Z","date":"2025-12-04","time":"21:16:41"},{"task":"memory_phase","broad_category":"I","image_png":"I_Gabbro_16.png","image_id":64,"category_name":"Gabbro","category":4,"distinct_rating":2.52,"distinct_type":"Bottom","rt":null,"stimulus":"Stimuli_Rocks480/I_Gabbro_16.png","response":null,"trial_type":"image-keyboard-response","trial_index":112,"plugin_version":"2.1.0","time_elapsed":391599,"subject_id":"88345","group":"Group1","full_date":"2025-12-04T21:16:41.443Z","date":"2025-12-04","time":"21:16:41"},{"rt":null,"stimulus":"<p style=\"font-size: 50px; margin: 0; text-align: center;\">+</p>","response":null,"trial_type":"html-keyboard-response","trial_index":113,"plugin_version":"2.1.0","time_elapsed":392601,"subject_id":"88345","group":"Group1","full_date":"2025-12-04T21:16:41.443Z","date":"2025-12-04","time":"21:16:41"},{"task":"memory_phase","broad_category":"I","image_png":"I_Basalt_09.png","image_id":25,"category_name":"Basalt","category":2,"distinct_rating":1.89,"distinct_type":"Bottom","rt":null,"stimulus":"Stimuli_Rocks480/I_Basalt_09.png","response":null,"trial_type":"image-keyboard-response","trial_index":114,"plugin_version":"2.1.0","time_elapsed":395114,"subject_id":"88345","group":"Group1","full_date":"2025-12-04T21:16:41.443Z","date":"2025-12-04","time":"21:16:41"},{"rt":null,"stimulus":"<p style=\"font-size: 50px; margin: 0; text-align: center;\">+</p>","response":null,"trial_type":"html-keyboard-response","trial_index":115,"plugin_version":"2.1.0","time_elapsed":396117,"subject_id":"88345","group":"Group1","full_date":"2025-12-04T21:16:41.443Z","date":"2025-12-04","time":"21:16:41"},{"task":"memory_phase","broad_category":"I","image_png":"I_Diorite_05.png","image_id":37,"category_name":"Diorite","category":3,"distinct_rating":3.08,"distinct_type":"Bottom","rt":null,"stimulus":"Stimuli_Rocks480/I_Diorite_05.png","response":null,"trial_type":"image-keyboard-response","trial_index":116,"plugin_version":"2.1.0","time_elapsed":398634,"subject_id":"88345","group":"Group1","full_date":"2025-12-04T21:16:41.443Z","date":"2025-12-04","time":"21:16:41"},{"rt":null,"stimulus":"<p style=\"font-size: 50px; margin: 0; text-align: center;\">+</p>","response":null,"trial_type":"html-keyboard-response","trial_index":117,"plugin_version":"2.1.0","time_elapsed":399636,"subject_id":"88345","group":"Group1","full_date":"2025-12-04T21:16:41.443Z","date":"2025-12-04","time":"21:16:41"},{"task":"memory_phase","broad_category":"S","image_png":"S_Rock Gypsum_04.png","image_id":420,"category_name":"Rock Gypsum","category":27,"distinct_rating":7.61,"distinct_type":"Top","rt":null,"stimulus":"Stimuli_Rocks480/S_Rock Gypsum_04.png","response":null,"trial_type":"image-keyboard-response","trial_index":118,"plugin_version":"2.1.0","time_elapsed":402154,"subject_id":"88345","group":"Group1","full_date":"2025-12-04T21:16:41.443Z","date":"2025-12-04","time":"21:16:41"},{"rt":null,"stimulus":"<p style=\"font-size: 50px; margin: 0; text-align: center;\">+</p>","response":null,"trial_type":"html-keyboard-response","trial_index":119,"plugin_version":"2.1.0","time_elapsed":403156,"subject_id":"88345","group":"Group1","full_date":"2025-12-04T21:16:41.443Z","date":"2025-12-04","time":"21:16:41"},{"task":"memory_phase","broad_category":"M","image_png":"M_Phyllite_07.png","image_id":263,"category_name":"Phyllite","category":17,"distinct_rating":2.59,"distinct_type":"Bottom","rt":null,"stimulus":"Stimuli_Rocks480/M_Phyllite_07.png","response":null,"trial_type":"image-keyboard-response","trial_index":120,"plugin_version":"2.1.0","time_elapsed":405671,"subject_id":"88345","group":"Group1","full_date":"2025-12-04T21:16:41.443Z","date":"2025-12-04","time":"21:16:41"},{"rt":null,"stimulus":"<p style=\"font-size: 50px; margin: 0; text-align: center;\">+</p>","response":null,"trial_type":"html-keyboard-response","trial_index":121,"plugin_version":"2.1.0","time_elapsed":406673,"subject_id":"88345","group":"Group1","full_date":"2025-12-04T21:16:41.443Z","date":"2025-12-04","time":"21:16:41"},{"task":"memory_phase","broad_category":"S","image_png":"S_Dolomite_13.png","image_id":397,"category_name":"Dolomite","category":25,"distinct_rating":1.77,"distinct_type":"Bottom","rt":null,"stimulus":"Stimuli_Rocks480/S_Dolomite_13.png","response":null,"trial_type":"image-keyboard-response","trial_index":122,"plugin_version":"2.1.0","time_elapsed":409189,"subject_id":"88345","group":"Group1","full_date":"2025-12-04T21:16:41.443Z","date":"2025-12-04","time":"21:16:41"},{"rt":null,"stimulus":"<p style=\"font-size: 50px; margin: 0; text-align: center;\">+</p>","response":null,"trial_type":"html-keyboard-response","trial_index":123,"plugin_version":"2.1.0","time_elapsed":410192,"subject_id":"88345","group":"Group1","full_date":"2025-12-04T21:16:41.443Z","date":"2025-12-04","time":"21:16:41"},{"task":"memory_phase","broad_category":"I","image_png":"I_Diorite_04.png","image_id":36,"category_name":"Diorite","category":3,"distinct_rating":2.98,"distinct_type":"Bottom","rt":null,"stimulus":"Stimuli_Rocks480/I_Diorite_04.png","response":null,"trial_type":"image-keyboard-response","trial_index":124,"plugin_version":"2.1.0","time_elapsed":412708,"subject_id":"88345","group":"Group1","full_date":"2025-12-04T21:16:41.443Z","date":"2025-12-04","time":"21:16:41"},{"rt":null,"stimulus":"<p style=\"font-size: 50px; margin: 0; text-align: center;\">+</p>","response":null,"trial_type":"html-keyboard-response","trial_index":125,"plugin_version":"2.1.0","time_elapsed":413710,"subject_id":"88345","group":"Group1","full_date":"2025-12-04T21:16:41.443Z","date":"2025-12-04","time":"21:16:41"},{"task":"memory_phase","broad_category":"S","image_png":"S_Conglomerate_05.png","image_id":373,"category_name":"Conglomerate","category":24,"distinct_rating":7.32,"distinct_type":"Top","rt":null,"stimulus":"Stimuli_Rocks480/S_Conglomerate_05.png","response":null,"trial_type":"image-keyboard-response","trial_index":126,"plugin_version":"2.1.0","time_elapsed":416227,"subject_id":"88345","group":"Group1","full_date":"2025-12-04T21:16:41.443Z","date":"2025-12-04","time":"21:16:41"},{"rt":null,"stimulus":"<p style=\"font-size: 50px; margin: 0; text-align: center;\">+</p>","response":null,"trial_type":"html-keyboard-response","trial_index":127,"plugin_version":"2.1.0","time_elapsed":417230,"subject_id":"88345","group":"Group1","full_date":"2025-12-04T21:16:41.443Z","date":"2025-12-04","time":"21:16:41"},{"task":"memory_phase","broad_category":"I","image_png":"I_Andesite_08.png","image_id":8,"category_name":"Andesite","category":1,"distinct_rating":1.95,"distinct_type":"Bottom","rt":null,"stimulus":"Stimuli_Rocks480/I_Andesite_08.png","response":null,"trial_type":"image-keyboard-response","trial_index":128,"plugin_version":"2.1.0","time_elapsed":419751,"subject_id":"88345","group":"Group1","full_date":"2025-12-04T21:16:41.443Z","date":"2025-12-04","time":"21:16:41"},{"rt":null,"stimulus":"<p style=\"font-size: 50px; margin: 0; text-align: center;\">+</p>","response":null,"trial_type":"html-keyboard-response","trial_index":129,"plugin_version":"2.1.0","time_elapsed":420754,"subject_id":"88345","group":"Group1","full_date":"2025-12-04T21:16:41.443Z","date":"2025-12-04","time":"21:16:41"},{"task":"memory_phase","broad_category":"I","image_png":"I_Pegmatite_10.png","image_id":106,"category_name":"Pegmatite","category":7,"distinct_rating":7.66,"distinct_type":"Top","rt":null,"stimulus":"Stimuli_Rocks480/I_Pegmatite_10.png","response":null,"trial_type":"image-keyboard-response","trial_index":130,"plugin_version":"2.1.0","time_elapsed":423271,"subject_id":"88345","group":"Group1","full_date":"2025-12-04T21:16:41.443Z","date":"2025-12-04","time":"21:16:41"},{"rt":null,"stimulus":"<p style=\"font-size: 50px; margin: 0; text-align: center;\">+</p>","response":null,"trial_type":"html-keyboard-response","trial_index":131,"plugin_version":"2.1.0","time_elapsed":424272,"subject_id":"88345","group":"Group1","full_date":"2025-12-04T21:16:41.443Z","date":"2025-12-04","time":"21:16:41"},{"task":"memory_phase","broad_category":"M","image_png":"M_Phyllite_10.png","image_id":266,"category_name":"Phyllite","category":17,"distinct_rating":2.6,"distinct_type":"Bottom","rt":null,"stimulus":"Stimuli_Rocks480/M_Phyllite_10.png","response":null,"trial_type":"image-keyboard-response","trial_index":132,"plugin_version":"2.1.0","time_elapsed":426786,"subject_id":"88345","group":"Group1","full_date":"2025-12-04T21:16:41.443Z","date":"2025-12-04","time":"21:16:41"},{"rt":null,"stimulus":"<p style=\"font-size: 50px; margin: 0; text-align: center;\">+</p>","response":null,"trial_type":"html-keyboard-response","trial_index":133,"plugin_version":"2.1.0","time_elapsed":427788,"subject_id":"88345","group":"Group1","full_date":"2025-12-04T21:16:41.443Z","date":"2025-12-04","time":"21:16:41"},{"task":"memory_phase","broad_category":"S","image_png":"S_Shale_08.png","image_id":472,"category_name":"Shale","category":30,"distinct_rating":2.55,"distinct_type":"Bottom","rt":null,"stimulus":"Stimuli_Rocks480/S_Shale_08.png","response":null,"trial_type":"image-keyboard-response","trial_index":134,"plugin_version":"2.1.0","time_elapsed":430292,"subject_id":"88345","group":"Group1","full_date":"2025-12-04T21:16:41.443Z","date":"2025-12-04","time":"21:16:41"},{"rt":null,"stimulus":"<p style=\"font-size: 50px; margin: 0; text-align: center;\">+</p>","response":null,"trial_type":"html-keyboard-response","trial_index":135,"plugin_version":"2.1.0","time_elapsed":431294,"subject_id":"88345","group":"Group1","full_date":"2025-12-04T21:16:41.443Z","date":"2025-12-04","time":"21:16:41"},{"task":"memory_phase","broad_category":"S","image_png":"S_Shale_01.png","image_id":465,"category_name":"Shale","category":30,"distinct_rating":2.7,"distinct_type":"Bottom","rt":null,"stimulus":"Stimuli_Rocks480/S_Shale_01.png","response":null,"trial_type":"image-keyboard-response","trial_index":136,"plugin_version":"2.1.0","time_elapsed":433812,"subject_id":"88345","group":"Group1","full_date":"2025-12-04T21:16:41.443Z","date":"2025-12-04","time":"21:16:41"},{"rt":null,"stimulus":"<p style=\"font-size: 50px; margin: 0; text-align: center;\">+</p>","response":null,"trial_type":"html-keyboard-response","trial_index":137,"plugin_version":"2.1.0","time_elapsed":434815,"subject_id":"88345","group":"Group1","full_date":"2025-12-04T21:16:41.443Z","date":"2025-12-04","time":"21:16:41"},{"task":"memory_phase","broad_category":"S","image_png":"S_Shale_12.png","image_id":476,"category_name":"Shale","category":30,"distinct_rating":2.48,"distinct_type":"Bottom","rt":null,"stimulus":"Stimuli_Rocks480/S_Shale_12.png","response":null,"trial_type":"image-keyboard-response","trial_index":138,"plugin_version":"2.1.0","time_elapsed":437318,"subject_id":"88345","group":"Group1","full_date":"2025-12-04T21:16:41.443Z","date":"2025-12-04","time":"21:16:41"},{"rt":null,"stimulus":"<p style=\"font-size: 50px; margin: 0; text-align: center;\">+</p>","response":null,"trial_type":"html-keyboard-response","trial_index":139,"plugin_version":"2.1.0","time_elapsed":438321,"subject_id":"88345","group":"Group1","full_date":"2025-12-04T21:16:41.443Z","date":"2025-12-04","time":"21:16:41"},{"task":"memory_phase","broad_category":"I","image_png":"I_Gabbro_11.png","image_id":59,"category_name":"Gabbro","category":4,"distinct_rating":1.99,"distinct_type":"Bottom","rt":null,"stimulus":"Stimuli_Rocks480/I_Gabbro_11.png","response":null,"trial_type":"image-keyboard-response","trial_index":140,"plugin_version":"2.1.0","time_elapsed":440824,"subject_id":"88345","group":"Group1","full_date":"2025-12-04T21:16:41.443Z","date":"2025-12-04","time":"21:16:41"},{"rt":null,"stimulus":"<p style=\"font-size: 50px; margin: 0; text-align: center;\">+</p>","response":null,"trial_type":"html-keyboard-response","trial_index":141,"plugin_version":"2.1.0","time_elapsed":441826,"subject_id":"88345","group":"Group1","full_date":"2025-12-04T21:16:41.443Z","date":"2025-12-04","time":"21:16:41"},{"task":"memory_phase","broad_category":"I","image_png":"I_Pumice_12.png","image_id":140,"category_name":"Pumice","category":9,"distinct_rating":2.97,"distinct_type":"Bottom","rt":null,"stimulus":"Stimuli_Rocks480/I_Pumice_12.png","response":null,"trial_type":"image-keyboard-response","trial_index":142,"plugin_version":"2.1.0","time_elapsed":444340,"subject_id":"88345","group":"Group1","full_date":"2025-12-04T21:16:41.443Z","date":"2025-12-04","time":"21:16:41"},{"rt":null,"stimulus":"<p style=\"font-size: 50px; margin: 0; text-align: center;\">+</p>","response":null,"trial_type":"html-keyboard-response","trial_index":143,"plugin_version":"2.1.0","time_elapsed":445342,"subject_id":"88345","group":"Group1","full_date":"2025-12-04T21:16:41.443Z","date":"2025-12-04","time":"21:16:41"},{"task":"memory_phase","broad_category":"I","image_png":"I_Basalt_01.png","image_id":17,"category_name":"Basalt","category":2,"distinct_rating":1.92,"distinct_type":"Bottom","rt":null,"stimulus":"Stimuli_Rocks480/I_Basalt_01.png","response":null,"trial_type":"image-keyboard-response","trial_index":144,"plugin_version":"2.1.0","time_elapsed":447860,"subject_id":"88345","group":"Group1","full_date":"2025-12-04T21:16:41.443Z","date":"2025-12-04","time":"21:16:41"},{"rt":null,"stimulus":"<p style=\"font-size: 50px; margin: 0; text-align: center;\">+</p>","response":null,"trial_type":"html-keyboard-response","trial_index":145,"plugin_version":"2.1.0","time_elapsed":448863,"subject_id":"88345","group":"Group1","full_date":"2025-12-04T21:16:41.443Z","date":"2025-12-04","time":"21:16:41"},{"task":"memory_phase","broad_category":"M","image_png":"M_Gneiss_05.png","image_id":197,"category_name":"Gneiss","category":13,"distinct_rating":2.97,"distinct_type":"Bottom","rt":null,"stimulus":"Stimuli_Rocks480/M_Gneiss_05.png","response":null,"trial_type":"image-keyboard-response","trial_index":146,"plugin_version":"2.1.0","time_elapsed":451384,"subject_id":"88345","group":"Group1","full_date":"2025-12-04T21:16:41.443Z","date":"2025-12-04","time":"21:16:41"},{"rt":null,"stimulus":"<p style=\"font-size: 50px; margin: 0; text-align: center;\">+</p>","response":null,"trial_type":"html-keyboard-response","trial_index":147,"plugin_version":"2.1.0","time_elapsed":452386,"subject_id":"88345","group":"Group1","full_date":"2025-12-04T21:16:41.443Z","date":"2025-12-04","time":"21:16:41"},{"task":"memory_phase","broad_category":"I","image_png":"I_Obsidian_05.png","image_id":85,"category_name":"Obsidian","category":6,"distinct_rating":7.32,"distinct_type":"Top","rt":null,"stimulus":"Stimuli_Rocks480/I_Obsidian_05.png","response":null,"trial_type":"image-keyboard-response","trial_index":148,"plugin_version":"2.1.0","time_elapsed":454906,"subject_id":"88345","group":"Group1","full_date":"2025-12-04T21:16:41.443Z","date":"2025-12-04","time":"21:16:41"},{"rt":null,"stimulus":"<p style=\"font-size: 50px; margin: 0; text-align: center;\">+</p>","response":null,"trial_type":"html-keyboard-response","trial_index":149,"plugin_version":"2.1.0","time_elapsed":455908,"subject_id":"88345","group":"Group1","full_date":"2025-12-04T21:16:41.443Z","date":"2025-12-04","time":"21:16:41"},{"task":"memory_phase","broad_category":"I","image_png":"I_Rhyolite_16.png","image_id":160,"category_name":"Rhyolite","category":10,"distinct_rating":2.19,"distinct_type":"Bottom","rt":null,"stimulus":"Stimuli_Rocks480/I_Rhyolite_16.png","response":null,"trial_type":"image-keyboard-response","trial_index":150,"plugin_version":"2.1.0","time_elapsed":458423,"subject_id":"88345","group":"Group1","full_date":"2025-12-04T21:16:41.443Z","date":"2025-12-04","time":"21:16:41"},{"rt":null,"stimulus":"<p style=\"font-size: 50px; margin: 0; text-align: center;\">+</p>","response":null,"trial_type":"html-keyboard-response","trial_index":151,"plugin_version":"2.1.0","time_elapsed":459425,"subject_id":"88345","group":"Group1","full_date":"2025-12-04T21:16:41.443Z","date":"2025-12-04","time":"21:16:41"},{"task":"memory_phase","broad_category":"I","image_png":"I_Andesite_10.png","image_id":10,"category_name":"Andesite","category":1,"distinct_rating":3.15,"distinct_type":"Bottom","rt":null,"stimulus":"Stimuli_Rocks480/I_Andesite_10.png","response":null,"trial_type":"image-keyboard-response","trial_index":152,"plugin_version":"2.1.0","time_elapsed":461939,"subject_id":"88345","group":"Group1","full_date":"2025-12-04T21:16:41.443Z","date":"2025-12-04","time":"21:16:41"},{"rt":null,"stimulus":"<p style=\"font-size: 50px; margin: 0; text-align: center;\">+</p>","response":null,"trial_type":"html-keyboard-response","trial_index":153,"plugin_version":"2.1.0","time_elapsed":462941,"subject_id":"88345","group":"Group1","full_date":"2025-12-04T21:16:41.443Z","date":"2025-12-04","time":"21:16:41"},{"task":"memory_phase","broad_category":"M","image_png":"M_Marble_06.png","image_id":230,"category_name":"Marble","category":15,"distinct_rating":3.4,"distinct_type":"Bottom","rt":null,"stimulus":"Stimuli_Rocks480/M_Marble_06.png","response":null,"trial_type":"image-keyboard-response","trial_index":154,"plugin_version":"2.1.0","time_elapsed":465459,"subject_id":"88345","group":"Group1","full_date":"2025-12-04T21:16:41.443Z","date":"2025-12-04","time":"21:16:41"},{"rt":null,"stimulus":"<p style=\"font-size: 50px; margin: 0; text-align: center;\">+</p>","response":null,"trial_type":"html-keyboard-response","trial_index":155,"plugin_version":"2.1.0","time_elapsed":466461,"subject_id":"88345","group":"Group1","full_date":"2025-12-04T21:16:41.443Z","date":"2025-12-04","time":"21:16:41"},{"task":"memory_phase","broad_category":"M","image_png":"M_Phyllite_03.png","image_id":259,"category_name":"Phyllite","category":17,"distinct_rating":2.5,"distinct_type":"Bottom","rt":null,"stimulus":"Stimuli_Rocks480/M_Phyllite_03.png","response":null,"trial_type":"image-keyboard-response","trial_index":156,"plugin_version":"2.1.0","time_elapsed":468979,"subject_id":"88345","group":"Group1","full_date":"2025-12-04T21:16:41.443Z","date":"2025-12-04","time":"21:16:41"},{"rt":1566,"stimulus":"<p style=\"max-width: 760px; margin: auto; font-size: 35px; line-height: 1.5;\">Press SPACE to continue study phase</p>","response":" ","trial_type":"html-keyboard-response","trial_index":157,"plugin_version":"2.1.0","time_elapsed":470547,"subject_id":"88345","group":"Group1","full_date":"2025-12-04T21:16:41.443Z","date":"2025-12-04","time":"21:16:41"},{"rt":null,"stimulus":"<p style=\"font-size: 50px; margin: 0; text-align: center;\">+</p>","response":null,"trial_type":"html-keyboard-response","trial_index":158,"plugin_version":"2.1.0","time_elapsed":471550,"subject_id":"88345","group":"Group1","full_date":"2025-12-04T21:16:41.443Z","date":"2025-12-04","time":"21:16:41"},{"task":"memory_phase","broad_category":"S","image_png":"S_Dolomite_14.png","image_id":398,"category_name":"Dolomite","category":25,"distinct_rating":1.43,"distinct_type":"Bottom","rt":null,"stimulus":"Stimuli_Rocks480/S_Dolomite_14.png","response":null,"trial_type":"image-keyboard-response","trial_index":159,"plugin_version":"2.1.0","time_elapsed":474066,"subject_id":"88345","group":"Group1","full_date":"2025-12-04T21:16:41.443Z","date":"2025-12-04","time":"21:16:41"},{"rt":null,"stimulus":"<p style=\"font-size: 50px; margin: 0; text-align: center;\">+</p>","response":null,"trial_type":"html-keyboard-response","trial_index":160,"plugin_version":"2.1.0","time_elapsed":475068,"subject_id":"88345","group":"Group1","full_date":"2025-12-04T21:16:41.443Z","date":"2025-12-04","time":"21:16:41"},{"task":"memory_phase","broad_category":"M","image_png":"M_Slate_15.png","image_id":319,"category_name":"Slate","category":20,"distinct_rating":2.13,"distinct_type":"Bottom","rt":null,"stimulus":"Stimuli_Rocks480/M_Slate_15.png","response":null,"trial_type":"image-keyboard-response","trial_index":161,"plugin_version":"2.1.0","time_elapsed":477582,"subject_id":"88345","group":"Group1","full_date":"2025-12-04T21:16:41.443Z","date":"2025-12-04","time":"21:16:41"},{"rt":null,"stimulus":"<p style=\"font-size: 50px; margin: 0; text-align: center;\">+</p>","response":null,"trial_type":"html-keyboard-response","trial_index":162,"plugin_version":"2.1.0","time_elapsed":478584,"subject_id":"88345","group":"Group1","full_date":"2025-12-04T21:16:41.443Z","date":"2025-12-04","time":"21:16:41"},{"task":"memory_phase","broad_category":"M","image_png":"M_Quartzite_05.png","image_id":277,"category_name":"Quartzite","category":18,"distinct_rating":2.23,"distinct_type":"Bottom","rt":null,"stimulus":"Stimuli_Rocks480/M_Quartzite_05.png","response":null,"trial_type":"image-keyboard-response","trial_index":163,"plugin_version":"2.1.0","time_elapsed":481103,"subject_id":"88345","group":"Group1","full_date":"2025-12-04T21:16:41.443Z","date":"2025-12-04","time":"21:16:41"},{"rt":null,"stimulus":"<p style=\"font-size: 50px; margin: 0; text-align: center;\">+</p>","response":null,"trial_type":"html-keyboard-response","trial_index":164,"plugin_version":"2.1.0","time_elapsed":482105,"subject_id":"88345","group":"Group1","full_date":"2025-12-04T21:16:41.443Z","date":"2025-12-04","time":"21:16:41"},{"task":"memory_phase","broad_category":"S","image_png":"S_Breccia_11.png","image_id":347,"category_name":"Breccia","category":22,"distinct_rating":6.7,"distinct_type":"Top","rt":null,"stimulus":"Stimuli_Rocks480/S_Breccia_11.png","response":null,"trial_type":"image-keyboard-response","trial_index":165,"plugin_version":"2.1.0","time_elapsed":484628,"subject_id":"88345","group":"Group1","full_date":"2025-12-04T21:16:41.443Z","date":"2025-12-04","time":"21:16:41"},{"rt":null,"stimulus":"<p style=\"font-size: 50px; margin: 0; text-align: center;\">+</p>","response":null,"trial_type":"html-keyboard-response","trial_index":166,"plugin_version":"2.1.0","time_elapsed":485630,"subject_id":"88345","group":"Group1","full_date":"2025-12-04T21:16:41.443Z","date":"2025-12-04","time":"21:16:41"},{"task":"memory_phase","broad_category":"I","image_png":"I_Pegmatite_16.png","image_id":112,"category_name":"Pegmatite","category":7,"distinct_rating":7.03,"distinct_type":"Top","rt":null,"stimulus":"Stimuli_Rocks480/I_Pegmatite_16.png","response":null,"trial_type":"image-keyboard-response","trial_index":167,"plugin_version":"2.1.0","time_elapsed":488146,"subject_id":"88345","group":"Group1","full_date":"2025-12-04T21:16:41.443Z","date":"2025-12-04","time":"21:16:41"},{"rt":null,"stimulus":"<p style=\"font-size: 50px; margin: 0; text-align: center;\">+</p>","response":null,"trial_type":"html-keyboard-response","trial_index":168,"plugin_version":"2.1.0","time_elapsed":489148,"subject_id":"88345","group":"Group1","full_date":"2025-12-04T21:16:41.443Z","date":"2025-12-04","time":"21:16:41"},{"task":"memory_phase","broad_category":"I","image_png":"I_Pumice_11.png","image_id":139,"category_name":"Pumice","category":9,"distinct_rating":1.74,"distinct_type":"Bottom","rt":null,"stimulus":"Stimuli_Rocks480/I_Pumice_11.png","response":null,"trial_type":"image-keyboard-response","trial_index":169,"plugin_version":"2.1.0","time_elapsed":491660,"subject_id":"88345","group":"Group1","full_date":"2025-12-04T21:16:41.443Z","date":"2025-12-04","time":"21:16:41"},{"rt":null,"stimulus":"<p style=\"font-size: 50px; margin: 0; text-align: center;\">+</p>","response":null,"trial_type":"html-keyboard-response","trial_index":170,"plugin_version":"2.1.0","time_elapsed":492663,"subject_id":"88345","group":"Group1","full_date":"2025-12-04T21:16:41.443Z","date":"2025-12-04","time":"21:16:41"},{"task":"memory_phase","broad_category":"M","image_png":"M_Gneiss_13.png","image_id":205,"category_name":"Gneiss","category":13,"distinct_rating":3.26,"distinct_type":"Bottom","rt":null,"stimulus":"Stimuli_Rocks480/M_Gneiss_13.png","response":null,"trial_type":"image-keyboard-response","trial_index":171,"plugin_version":"2.1.0","time_elapsed":495177,"subject_id":"88345","group":"Group1","full_date":"2025-12-04T21:16:41.443Z","date":"2025-12-04","time":"21:16:41"},{"rt":null,"stimulus":"<p style=\"font-size: 50px; margin: 0; text-align: center;\">+</p>","response":null,"trial_type":"html-keyboard-response","trial_index":172,"plugin_version":"2.1.0","time_elapsed":496180,"subject_id":"88345","group":"Group1","full_date":"2025-12-04T21:16:41.443Z","date":"2025-12-04","time":"21:16:41"},{"task":"memory_phase","broad_category":"S","image_png":"S_Sandstone_16.png","image_id":464,"category_name":"Sandstone","category":29,"distinct_rating":1.93,"distinct_type":"Bottom","rt":null,"stimulus":"Stimuli_Rocks480/S_Sandstone_16.png","response":null,"trial_type":"image-keyboard-response","trial_index":173,"plugin_version":"2.1.0","time_elapsed":498693,"subject_id":"88345","group":"Group1","full_date":"2025-12-04T21:16:41.443Z","date":"2025-12-04","time":"21:16:41"},{"rt":null,"stimulus":"<p style=\"font-size: 50px; margin: 0; text-align: center;\">+</p>","response":null,"trial_type":"html-keyboard-response","trial_index":174,"plugin_version":"2.1.0","time_elapsed":499696,"subject_id":"88345","group":"Group1","full_date":"2025-12-04T21:16:41.443Z","date":"2025-12-04","time":"21:16:41"},{"task":"memory_phase","broad_category":"I","image_png":"I_Diorite_03.png","image_id":35,"category_name":"Diorite","category":3,"distinct_rating":3.14,"distinct_type":"Bottom","rt":null,"stimulus":"Stimuli_Rocks480/I_Diorite_03.png","response":null,"trial_type":"image-keyboard-response","trial_index":175,"plugin_version":"2.1.0","time_elapsed":502215,"subject_id":"88345","group":"Group1","full_date":"2025-12-04T21:16:41.443Z","date":"2025-12-04","time":"21:16:41"},{"rt":null,"stimulus":"<p style=\"font-size: 50px; margin: 0; text-align: center;\">+</p>","response":null,"trial_type":"html-keyboard-response","trial_index":176,"plugin_version":"2.1.0","time_elapsed":503218,"subject_id":"88345","group":"Group1","full_date":"2025-12-04T21:16:41.443Z","date":"2025-12-04","time":"21:16:41"},{"task":"memory_phase","broad_category":"M","image_png":"M_Marble_16.png","image_id":240,"category_name":"Marble","category":15,"distinct_rating":2.57,"distinct_type":"Bottom","rt":null,"stimulus":"Stimuli_Rocks480/M_Marble_16.png","response":null,"trial_type":"image-keyboard-response","trial_index":177,"plugin_version":"2.1.0","time_elapsed":505733,"subject_id":"88345","group":"Group1","full_date":"2025-12-04T21:16:41.443Z","date":"2025-12-04","time":"21:16:41"},{"rt":null,"stimulus":"<p style=\"font-size: 50px; margin: 0; text-align: center;\">+</p>","response":null,"trial_type":"html-keyboard-response","trial_index":178,"plugin_version":"2.1.0","time_elapsed":506735,"subject_id":"88345","group":"Group1","full_date":"2025-12-04T21:16:41.443Z","date":"2025-12-04","time":"21:16:41"},{"task":"memory_phase","broad_category":"I","image_png":"I_Andesite_06.png","image_id":6,"category_name":"Andesite","category":1,"distinct_rating":3.17,"distinct_type":"Bottom","rt":null,"stimulus":"Stimuli_Rocks480/I_Andesite_06.png","response":null,"trial_type":"image-keyboard-response","trial_index":179,"plugin_version":"2.1.0","time_elapsed":509254,"subject_id":"88345","group":"Group1","full_date":"2025-12-04T21:16:41.443Z","date":"2025-12-04","time":"21:16:41"},{"rt":null,"stimulus":"<p style=\"font-size: 50px; margin: 0; text-align: center;\">+</p>","response":null,"trial_type":"html-keyboard-response","trial_index":180,"plugin_version":"2.1.0","time_elapsed":510256,"subject_id":"88345","group":"Group1","full_date":"2025-12-04T21:16:41.443Z","date":"2025-12-04","time":"21:16:41"},{"task":"memory_phase","broad_category":"S","image_png":"S_Dolomite_12.png","image_id":396,"category_name":"Dolomite","category":25,"distinct_rating":1.85,"distinct_type":"Bottom","rt":null,"stimulus":"Stimuli_Rocks480/S_Dolomite_12.png","response":null,"trial_type":"image-keyboard-response","trial_index":181,"plugin_version":"2.1.0","time_elapsed":512772,"subject_id":"88345","group":"Group1","full_date":"2025-12-04T21:16:41.443Z","date":"2025-12-04","time":"21:16:41"},{"rt":null,"stimulus":"<p style=\"font-size: 50px; margin: 0; text-align: center;\">+</p>","response":null,"trial_type":"html-keyboard-response","trial_index":182,"plugin_version":"2.1.0","time_elapsed":513775,"subject_id":"88345","group":"Group1","full_date":"2025-12-04T21:16:41.443Z","date":"2025-12-04","time":"21:16:41"},{"task":"memory_phase","broad_category":"S","image_png":"S_Chert_10.png","image_id":362,"category_name":"Chert","category":23,"distinct_rating":7.17,"distinct_type":"Top","rt":null,"stimulus":"Stimuli_Rocks480/S_Chert_10.png","response":null,"trial_type":"image-keyboard-response","trial_index":183,"plugin_version":"2.1.0","time_elapsed":516296,"subject_id":"88345","group":"Group1","full_date":"2025-12-04T21:16:41.443Z","date":"2025-12-04","time":"21:16:41"},{"rt":null,"stimulus":"<p style=\"font-size: 50px; margin: 0; text-align: center;\">+</p>","response":null,"trial_type":"html-keyboard-response","trial_index":184,"plugin_version":"2.1.0","time_elapsed":517299,"subject_id":"88345","group":"Group1","full_date":"2025-12-04T21:16:41.443Z","date":"2025-12-04","time":"21:16:41"},{"task":"memory_phase","broad_category":"M","image_png":"M_Slate_11.png","image_id":315,"category_name":"Slate","category":20,"distinct_rating":2.75,"distinct_type":"Bottom","rt":null,"stimulus":"Stimuli_Rocks480/M_Slate_11.png","response":null,"trial_type":"image-keyboard-response","trial_index":185,"plugin_version":"2.1.0","time_elapsed":519814,"subject_id":"88345","group":"Group1","full_date":"2025-12-04T21:16:41.443Z","date":"2025-12-04","time":"21:16:41"},{"rt":null,"stimulus":"<p style=\"font-size: 50px; margin: 0; text-align: center;\">+</p>","response":null,"trial_type":"html-keyboard-response","trial_index":186,"plugin_version":"2.1.0","time_elapsed":520817,"subject_id":"88345","group":"Group1","full_date":"2025-12-04T21:16:41.443Z","date":"2025-12-04","time":"21:16:41"},{"task":"memory_phase","broad_category":"M","image_png":"M_Marble_04.png","image_id":228,"category_name":"Marble","category":15,"distinct_rating":3.15,"distinct_type":"Bottom","rt":null,"stimulus":"Stimuli_Rocks480/M_Marble_04.png","response":null,"trial_type":"image-keyboard-response","trial_index":187,"plugin_version":"2.1.0","time_elapsed":523334,"subject_id":"88345","group":"Group1","full_date":"2025-12-04T21:16:41.443Z","date":"2025-12-04","time":"21:16:41"},{"rt":null,"stimulus":"<p style=\"font-size: 50px; margin: 0; text-align: center;\">+</p>","response":null,"trial_type":"html-keyboard-response","trial_index":188,"plugin_version":"2.1.0","time_elapsed":524337,"subject_id":"88345","group":"Group1","full_date":"2025-12-04T21:16:41.443Z","date":"2025-12-04","time":"21:16:41"},{"task":"memory_phase","broad_category":"I","image_png":"I_Rhyolite_14.png","image_id":158,"category_name":"Rhyolite","category":10,"distinct_rating":2.59,"distinct_type":"Bottom","rt":null,"stimulus":"Stimuli_Rocks480/I_Rhyolite_14.png","response":null,"trial_type":"image-keyboard-response","trial_index":189,"plugin_version":"2.1.0","time_elapsed":526850,"subject_id":"88345","group":"Group1","full_date":"2025-12-04T21:16:41.443Z","date":"2025-12-04","time":"21:16:41"},{"rt":null,"stimulus":"<p style=\"font-size: 50px; margin: 0; text-align: center;\">+</p>","response":null,"trial_type":"html-keyboard-response","trial_index":190,"plugin_version":"2.1.0","time_elapsed":527853,"subject_id":"88345","group":"Group1","full_date":"2025-12-04T21:16:41.443Z","date":"2025-12-04","time":"21:16:41"},{"task":"memory_phase","broad_category":"M","image_png":"M_Quartzite_13.png","image_id":285,"category_name":"Quartzite","category":18,"distinct_rating":2.27,"distinct_type":"Bottom","rt":null,"stimulus":"Stimuli_Rocks480/M_Quartzite_13.png","response":null,"trial_type":"image-keyboard-response","trial_index":191,"plugin_version":"2.1.0","time_elapsed":530368,"subject_id":"88345","group":"Group1","full_date":"2025-12-04T21:16:41.443Z","date":"2025-12-04","time":"21:16:41"},{"rt":null,"stimulus":"<p style=\"font-size: 50px; margin: 0; text-align: center;\">+</p>","response":null,"trial_type":"html-keyboard-response","trial_index":192,"plugin_version":"2.1.0","time_elapsed":531371,"subject_id":"88345","group":"Group1","full_date":"2025-12-04T21:16:41.443Z","date":"2025-12-04","time":"21:16:41"},{"task":"memory_phase","broad_category":"M","image_png":"M_Slate_03.png","image_id":307,"category_name":"Slate","category":20,"distinct_rating":1.87,"distinct_type":"Bottom","rt":null,"stimulus":"Stimuli_Rocks480/M_Slate_03.png","response":null,"trial_type":"image-keyboard-response","trial_index":193,"plugin_version":"2.1.0","time_elapsed":533890,"subject_id":"88345","group":"Group1","full_date":"2025-12-04T21:16:41.443Z","date":"2025-12-04","time":"21:16:41"},{"rt":null,"stimulus":"<p style=\"font-size: 50px; margin: 0; text-align: center;\">+</p>","response":null,"trial_type":"html-keyboard-response","trial_index":194,"plugin_version":"2.1.0","time_elapsed":534893,"subject_id":"88345","group":"Group1","full_date":"2025-12-04T21:16:41.443Z","date":"2025-12-04","time":"21:16:41"},{"task":"memory_phase","broad_category":"S","image_png":"S_Rock Salt_01.png","image_id":433,"category_name":"Rock Salt","category":28,"distinct_rating":7.18,"distinct_type":"Top","rt":null,"stimulus":"Stimuli_Rocks480/S_Rock Salt_01.png","response":null,"trial_type":"image-keyboard-response","trial_index":195,"plugin_version":"2.1.0","time_elapsed":537412,"subject_id":"88345","group":"Group1","full_date":"2025-12-04T21:16:41.443Z","date":"2025-12-04","time":"21:16:41"},{"rt":null,"stimulus":"<p style=\"font-size: 50px; margin: 0; text-align: center;\">+</p>","response":null,"trial_type":"html-keyboard-response","trial_index":196,"plugin_version":"2.1.0","time_elapsed":538414,"subject_id":"88345","group":"Group1","full_date":"2025-12-04T21:16:41.443Z","date":"2025-12-04","time":"21:16:41"},{"task":"memory_phase","broad_category":"S","image_png":"S_Sandstone_15.png","image_id":463,"category_name":"Sandstone","category":29,"distinct_rating":2,"distinct_type":"Bottom","rt":null,"stimulus":"Stimuli_Rocks480/S_Sandstone_15.png","response":null,"trial_type":"image-keyboard-response","trial_index":197,"plugin_version":"2.1.0","time_elapsed":540933,"subject_id":"88345","group":"Group1","full_date":"2025-12-04T21:16:41.443Z","date":"2025-12-04","time":"21:16:41"},{"rt":null,"stimulus":"<p style=\"font-size: 50px; margin: 0; text-align: center;\">+</p>","response":null,"trial_type":"html-keyboard-response","trial_index":198,"plugin_version":"2.1.0","time_elapsed":541935,"subject_id":"88345","group":"Group1","full_date":"2025-12-04T21:16:41.443Z","date":"2025-12-04","time":"21:16:41"},{"task":"memory_phase","broad_category":"M","image_png":"M_Quartzite_08.png","image_id":280,"category_name":"Quartzite","category":18,"distinct_rating":2.15,"distinct_type":"Bottom","rt":null,"stimulus":"Stimuli_Rocks480/M_Quartzite_08.png","response":null,"trial_type":"image-keyboard-response","trial_index":199,"plugin_version":"2.1.0","time_elapsed":544450,"subject_id":"88345","group":"Group1","full_date":"2025-12-04T21:16:41.443Z","date":"2025-12-04","time":"21:16:41"},{"rt":null,"stimulus":"<p style=\"font-size: 50px; margin: 0; text-align: center;\">+</p>","response":null,"trial_type":"html-keyboard-response","trial_index":200,"plugin_version":"2.1.0","time_elapsed":545453,"subject_id":"88345","group":"Group1","full_date":"2025-12-04T21:16:41.443Z","date":"2025-12-04","time":"21:16:41"},{"task":"memory_phase","broad_category":"I","image_png":"I_Pumice_08.png","image_id":136,"category_name":"Pumice","category":9,"distinct_rating":3.1,"distinct_type":"Bottom","rt":null,"stimulus":"Stimuli_Rocks480/I_Pumice_08.png","response":null,"trial_type":"image-keyboard-response","trial_index":201,"plugin_version":"2.1.0","time_elapsed":547967,"subject_id":"88345","group":"Group1","full_date":"2025-12-04T21:16:41.443Z","date":"2025-12-04","time":"21:16:41"},{"rt":null,"stimulus":"<p style=\"font-size: 50px; margin: 0; text-align: center;\">+</p>","response":null,"trial_type":"html-keyboard-response","trial_index":202,"plugin_version":"2.1.0","time_elapsed":548970,"subject_id":"88345","group":"Group1","full_date":"2025-12-04T21:16:41.443Z","date":"2025-12-04","time":"21:16:41"},{"task":"memory_phase","broad_category":"I","image_png":"I_Rhyolite_11.png","image_id":155,"category_name":"Rhyolite","category":10,"distinct_rating":1.73,"distinct_type":"Bottom","rt":null,"stimulus":"Stimuli_Rocks480/I_Rhyolite_11.png","response":null,"trial_type":"image-keyboard-response","trial_index":203,"plugin_version":"2.1.0","time_elapsed":551484,"subject_id":"88345","group":"Group1","full_date":"2025-12-04T21:16:41.443Z","date":"2025-12-04","time":"21:16:41"},{"rt":null,"stimulus":"<p style=\"font-size: 50px; margin: 0; text-align: center;\">+</p>","response":null,"trial_type":"html-keyboard-response","trial_index":204,"plugin_version":"2.1.0","time_elapsed":552487,"subject_id":"88345","group":"Group1","full_date":"2025-12-04T21:16:41.443Z","date":"2025-12-04","time":"21:16:41"},{"task":"memory_phase","broad_category":"M","image_png":"M_Gneiss_06.png","image_id":198,"category_name":"Gneiss","category":13,"distinct_rating":2.65,"distinct_type":"Bottom","rt":null,"stimulus":"Stimuli_Rocks480/M_Gneiss_06.png","response":null,"trial_type":"image-keyboard-response","trial_index":205,"plugin_version":"2.1.0","time_elapsed":555006,"subject_id":"88345","group":"Group1","full_date":"2025-12-04T21:16:41.443Z","date":"2025-12-04","time":"21:16:41"},{"rt":null,"stimulus":"<p style=\"font-size: 50px; margin: 0; text-align: center;\">+</p>","response":null,"trial_type":"html-keyboard-response","trial_index":206,"plugin_version":"2.1.0","time_elapsed":556009,"subject_id":"88345","group":"Group1","full_date":"2025-12-04T21:16:41.443Z","date":"2025-12-04","time":"21:16:41"},{"task":"memory_phase","broad_category":"I","image_png":"I_Gabbro_08.png","image_id":56,"category_name":"Gabbro","category":4,"distinct_rating":3.02,"distinct_type":"Bottom","rt":null,"stimulus":"Stimuli_Rocks480/I_Gabbro_08.png","response":null,"trial_type":"image-keyboard-response","trial_index":207,"plugin_version":"2.1.0","time_elapsed":558521,"subject_id":"88345","group":"Group1","full_date":"2025-12-04T21:16:41.443Z","date":"2025-12-04","time":"21:16:41"},{"rt":3849,"stimulus":"<p style=\"max-width: 760px; margin: auto; font-size: 35px; line-height: 1.5;\">You have completed 2 study phases. Now, we'll show you all the images again 1 more time.<br><br>Press SPACE to continue</p>","response":" ","trial_type":"html-keyboard-response","trial_index":208,"plugin_version":"2.1.0","time_elapsed":562372,"subject_id":"88345","group":"Group1","full_date":"2025-12-04T21:16:41.443Z","date":"2025-12-04","time":"21:16:41"},{"rt":null,"stimulus":"<p style=\"font-size: 50px; margin: 0; text-align: center;\">+</p>","response":null,"trial_type":"html-keyboard-response","trial_index":209,"plugin_version":"2.1.0","time_elapsed":563375,"subject_id":"88345","group":"Group1","full_date":"2025-12-04T21:16:41.443Z","date":"2025-12-04","time":"21:16:41"},{"task":"memory_phase","broad_category":"I","image_png":"I_Pumice_08.png","image_id":136,"category_name":"Pumice","category":9,"distinct_rating":3.1,"distinct_type":"Bottom","rt":null,"stimulus":"Stimuli_Rocks480/I_Pumice_08.png","response":null,"trial_type":"image-keyboard-response","trial_index":210,"plugin_version":"2.1.0","time_elapsed":565878,"subject_id":"88345","group":"Group1","full_date":"2025-12-04T21:16:41.443Z","date":"2025-12-04","time":"21:16:41"},{"rt":null,"stimulus":"<p style=\"font-size: 50px; margin: 0; text-align: center;\">+</p>","response":null,"trial_type":"html-keyboard-response","trial_index":211,"plugin_version":"2.1.0","time_elapsed":566881,"subject_id":"88345","group":"Group1","full_date":"2025-12-04T21:16:41.443Z","date":"2025-12-04","time":"21:16:41"},{"task":"memory_phase","broad_category":"M","image_png":"M_Phyllite_10.png","image_id":266,"category_name":"Phyllite","category":17,"distinct_rating":2.6,"distinct_type":"Bottom","rt":null,"stimulus":"Stimuli_Rocks480/M_Phyllite_10.png","response":null,"trial_type":"image-keyboard-response","trial_index":212,"plugin_version":"2.1.0","time_elapsed":569394,"subject_id":"88345","group":"Group1","full_date":"2025-12-04T21:16:41.443Z","date":"2025-12-04","time":"21:16:41"},{"rt":null,"stimulus":"<p style=\"font-size: 50px; margin: 0; text-align: center;\">+</p>","response":null,"trial_type":"html-keyboard-response","trial_index":213,"plugin_version":"2.1.0","time_elapsed":570396,"subject_id":"88345","group":"Group1","full_date":"2025-12-04T21:16:41.443Z","date":"2025-12-04","time":"21:16:41"},{"task":"memory_phase","broad_category":"I","image_png":"I_Pegmatite_16.png","image_id":112,"category_name":"Pegmatite","category":7,"distinct_rating":7.03,"distinct_type":"Top","rt":null,"stimulus":"Stimuli_Rocks480/I_Pegmatite_16.png","response":null,"trial_type":"image-keyboard-response","trial_index":214,"plugin_version":"2.1.0","time_elapsed":572912,"subject_id":"88345","group":"Group1","full_date":"2025-12-04T21:16:41.443Z","date":"2025-12-04","time":"21:16:41"},{"rt":null,"stimulus":"<p style=\"font-size: 50px; margin: 0; text-align: center;\">+</p>","response":null,"trial_type":"html-keyboard-response","trial_index":215,"plugin_version":"2.1.0","time_elapsed":573915,"subject_id":"88345","group":"Group1","full_date":"2025-12-04T21:16:41.443Z","date":"2025-12-04","time":"21:16:41"},{"task":"memory_phase","broad_category":"M","image_png":"M_Phyllite_03.png","image_id":259,"category_name":"Phyllite","category":17,"distinct_rating":2.5,"distinct_type":"Bottom","rt":null,"stimulus":"Stimuli_Rocks480/M_Phyllite_03.png","response":null,"trial_type":"image-keyboard-response","trial_index":216,"plugin_version":"2.1.0","time_elapsed":576430,"subject_id":"88345","group":"Group1","full_date":"2025-12-04T21:16:41.443Z","date":"2025-12-04","time":"21:16:41"},{"rt":null,"stimulus":"<p style=\"font-size: 50px; margin: 0; text-align: center;\">+</p>","response":null,"trial_type":"html-keyboard-response","trial_index":217,"plugin_version":"2.1.0","time_elapsed":577433,"subject_id":"88345","group":"Group1","full_date":"2025-12-04T21:16:41.443Z","date":"2025-12-04","time":"21:16:41"},{"task":"memory_phase","broad_category":"M","image_png":"M_Gneiss_05.png","image_id":197,"category_name":"Gneiss","category":13,"distinct_rating":2.97,"distinct_type":"Bottom","rt":null,"stimulus":"Stimuli_Rocks480/M_Gneiss_05.png","response":null,"trial_type":"image-keyboard-response","trial_index":218,"plugin_version":"2.1.0","time_elapsed":579956,"subject_id":"88345","group":"Group1","full_date":"2025-12-04T21:16:41.443Z","date":"2025-12-04","time":"21:16:41"},{"rt":null,"stimulus":"<p style=\"font-size: 50px; margin: 0; text-align: center;\">+</p>","response":null,"trial_type":"html-keyboard-response","trial_index":219,"plugin_version":"2.1.0","time_elapsed":580958,"subject_id":"88345","group":"Group1","full_date":"2025-12-04T21:16:41.443Z","date":"2025-12-04","time":"21:16:41"},{"task":"memory_phase","broad_category":"S","image_png":"S_Sandstone_15.png","image_id":463,"category_name":"Sandstone","category":29,"distinct_rating":2,"distinct_type":"Bottom","rt":null,"stimulus":"Stimuli_Rocks480/S_Sandstone_15.png","response":null,"trial_type":"image-keyboard-response","trial_index":220,"plugin_version":"2.1.0","time_elapsed":583462,"subject_id":"88345","group":"Group1","full_date":"2025-12-04T21:16:41.443Z","date":"2025-12-04","time":"21:16:41"},{"rt":null,"stimulus":"<p style=\"font-size: 50px; margin: 0; text-align: center;\">+</p>","response":null,"trial_type":"html-keyboard-response","trial_index":221,"plugin_version":"2.1.0","time_elapsed":584464,"subject_id":"88345","group":"Group1","full_date":"2025-12-04T21:16:41.443Z","date":"2025-12-04","time":"21:16:41"},{"task":"memory_phase","broad_category":"M","image_png":"M_Slate_11.png","image_id":315,"category_name":"Slate","category":20,"distinct_rating":2.75,"distinct_type":"Bottom","rt":null,"stimulus":"Stimuli_Rocks480/M_Slate_11.png","response":null,"trial_type":"image-keyboard-response","trial_index":222,"plugin_version":"2.1.0","time_elapsed":586977,"subject_id":"88345","group":"Group1","full_date":"2025-12-04T21:16:41.443Z","date":"2025-12-04","time":"21:16:41"},{"rt":null,"stimulus":"<p style=\"font-size: 50px; margin: 0; text-align: center;\">+</p>","response":null,"trial_type":"html-keyboard-response","trial_index":223,"plugin_version":"2.1.0","time_elapsed":587979,"subject_id":"88345","group":"Group1","full_date":"2025-12-04T21:16:41.443Z","date":"2025-12-04","time":"21:16:41"},{"task":"memory_phase","broad_category":"M","image_png":"M_Quartzite_08.png","image_id":280,"category_name":"Quartzite","category":18,"distinct_rating":2.15,"distinct_type":"Bottom","rt":null,"stimulus":"Stimuli_Rocks480/M_Quartzite_08.png","response":null,"trial_type":"image-keyboard-response","trial_index":224,"plugin_version":"2.1.0","time_elapsed":590482,"subject_id":"88345","group":"Group1","full_date":"2025-12-04T21:16:41.443Z","date":"2025-12-04","time":"21:16:41"},{"rt":null,"stimulus":"<p style=\"font-size: 50px; margin: 0; text-align: center;\">+</p>","response":null,"trial_type":"html-keyboard-response","trial_index":225,"plugin_version":"2.1.0","time_elapsed":591485,"subject_id":"88345","group":"Group1","full_date":"2025-12-04T21:16:41.443Z","date":"2025-12-04","time":"21:16:41"},{"task":"memory_phase","broad_category":"S","image_png":"S_Shale_12.png","image_id":476,"category_name":"Shale","category":30,"distinct_rating":2.48,"distinct_type":"Bottom","rt":null,"stimulus":"Stimuli_Rocks480/S_Shale_12.png","response":null,"trial_type":"image-keyboard-response","trial_index":226,"plugin_version":"2.1.0","time_elapsed":594003,"subject_id":"88345","group":"Group1","full_date":"2025-12-04T21:16:41.443Z","date":"2025-12-04","time":"21:16:41"},{"rt":null,"stimulus":"<p style=\"font-size: 50px; margin: 0; text-align: center;\">+</p>","response":null,"trial_type":"html-keyboard-response","trial_index":227,"plugin_version":"2.1.0","time_elapsed":595006,"subject_id":"88345","group":"Group1","full_date":"2025-12-04T21:16:41.443Z","date":"2025-12-04","time":"21:16:41"},{"task":"memory_phase","broad_category":"M","image_png":"M_Marble_16.png","image_id":240,"category_name":"Marble","category":15,"distinct_rating":2.57,"distinct_type":"Bottom","rt":null,"stimulus":"Stimuli_Rocks480/M_Marble_16.png","response":null,"trial_type":"image-keyboard-response","trial_index":228,"plugin_version":"2.1.0","time_elapsed":597521,"subject_id":"88345","group":"Group1","full_date":"2025-12-04T21:16:41.443Z","date":"2025-12-04","time":"21:16:41"},{"rt":null,"stimulus":"<p style=\"font-size: 50px; margin: 0; text-align: center;\">+</p>","response":null,"trial_type":"html-keyboard-response","trial_index":229,"plugin_version":"2.1.0","time_elapsed":598523,"subject_id":"88345","group":"Group1","full_date":"2025-12-04T21:16:41.443Z","date":"2025-12-04","time":"21:16:41"},{"task":"memory_phase","broad_category":"M","image_png":"M_Quartzite_05.png","image_id":277,"category_name":"Quartzite","category":18,"distinct_rating":2.23,"distinct_type":"Bottom","rt":null,"stimulus":"Stimuli_Rocks480/M_Quartzite_05.png","response":null,"trial_type":"image-keyboard-response","trial_index":230,"plugin_version":"2.1.0","time_elapsed":601040,"subject_id":"88345","group":"Group1","full_date":"2025-12-04T21:16:41.443Z","date":"2025-12-04","time":"21:16:41"},{"rt":null,"stimulus":"<p style=\"font-size: 50px; margin: 0; text-align: center;\">+</p>","response":null,"trial_type":"html-keyboard-response","trial_index":231,"plugin_version":"2.1.0","time_elapsed":602043,"subject_id":"88345","group":"Group1","full_date":"2025-12-04T21:16:41.443Z","date":"2025-12-04","time":"21:16:41"},{"task":"memory_phase","broad_category":"S","image_png":"S_Chert_10.png","image_id":362,"category_name":"Chert","category":23,"distinct_rating":7.17,"distinct_type":"Top","rt":null,"stimulus":"Stimuli_Rocks480/S_Chert_10.png","response":null,"trial_type":"image-keyboard-response","trial_index":232,"plugin_version":"2.1.0","time_elapsed":604560,"subject_id":"88345","group":"Group1","full_date":"2025-12-04T21:16:41.443Z","date":"2025-12-04","time":"21:16:41"},{"rt":null,"stimulus":"<p style=\"font-size: 50px; margin: 0; text-align: center;\">+</p>","response":null,"trial_type":"html-keyboard-response","trial_index":233,"plugin_version":"2.1.0","time_elapsed":605562,"subject_id":"88345","group":"Group1","full_date":"2025-12-04T21:16:41.443Z","date":"2025-12-04","time":"21:16:41"},{"task":"memory_phase","broad_category":"M","image_png":"M_Phyllite_07.png","image_id":263,"category_name":"Phyllite","category":17,"distinct_rating":2.59,"distinct_type":"Bottom","rt":null,"stimulus":"Stimuli_Rocks480/M_Phyllite_07.png","response":null,"trial_type":"image-keyboard-response","trial_index":234,"plugin_version":"2.1.0","time_elapsed":608079,"subject_id":"88345","group":"Group1","full_date":"2025-12-04T21:16:41.443Z","date":"2025-12-04","time":"21:16:41"},{"rt":null,"stimulus":"<p style=\"font-size: 50px; margin: 0; text-align: center;\">+</p>","response":null,"trial_type":"html-keyboard-response","trial_index":235,"plugin_version":"2.1.0","time_elapsed":609082,"subject_id":"88345","group":"Group1","full_date":"2025-12-04T21:16:41.443Z","date":"2025-12-04","time":"21:16:41"},{"task":"memory_phase","broad_category":"I","image_png":"I_Rhyolite_16.png","image_id":160,"category_name":"Rhyolite","category":10,"distinct_rating":2.19,"distinct_type":"Bottom","rt":null,"stimulus":"Stimuli_Rocks480/I_Rhyolite_16.png","response":null,"trial_type":"image-keyboard-response","trial_index":236,"plugin_version":"2.1.0","time_elapsed":611595,"subject_id":"88345","group":"Group1","full_date":"2025-12-04T21:16:41.443Z","date":"2025-12-04","time":"21:16:41"},{"rt":null,"stimulus":"<p style=\"font-size: 50px; margin: 0; text-align: center;\">+</p>","response":null,"trial_type":"html-keyboard-response","trial_index":237,"plugin_version":"2.1.0","time_elapsed":612597,"subject_id":"88345","group":"Group1","full_date":"2025-12-04T21:16:41.443Z","date":"2025-12-04","time":"21:16:41"},{"task":"memory_phase","broad_category":"S","image_png":"S_Rock Salt_01.png","image_id":433,"category_name":"Rock Salt","category":28,"distinct_rating":7.18,"distinct_type":"Top","rt":null,"stimulus":"Stimuli_Rocks480/S_Rock Salt_01.png","response":null,"trial_type":"image-keyboard-response","trial_index":238,"plugin_version":"2.1.0","time_elapsed":615101,"subject_id":"88345","group":"Group1","full_date":"2025-12-04T21:16:41.443Z","date":"2025-12-04","time":"21:16:41"},{"rt":null,"stimulus":"<p style=\"font-size: 50px; margin: 0; text-align: center;\">+</p>","response":null,"trial_type":"html-keyboard-response","trial_index":239,"plugin_version":"2.1.0","time_elapsed":616104,"subject_id":"88345","group":"Group1","full_date":"2025-12-04T21:16:41.443Z","date":"2025-12-04","time":"21:16:41"},{"task":"memory_phase","broad_category":"S","image_png":"S_Dolomite_12.png","image_id":396,"category_name":"Dolomite","category":25,"distinct_rating":1.85,"distinct_type":"Bottom","rt":null,"stimulus":"Stimuli_Rocks480/S_Dolomite_12.png","response":null,"trial_type":"image-keyboard-response","trial_index":240,"plugin_version":"2.1.0","time_elapsed":618620,"subject_id":"88345","group":"Group1","full_date":"2025-12-04T21:16:41.443Z","date":"2025-12-04","time":"21:16:41"},{"rt":null,"stimulus":"<p style=\"font-size: 50px; margin: 0; text-align: center;\">+</p>","response":null,"trial_type":"html-keyboard-response","trial_index":241,"plugin_version":"2.1.0","time_elapsed":619622,"subject_id":"88345","group":"Group1","full_date":"2025-12-04T21:16:41.443Z","date":"2025-12-04","time":"21:16:41"},{"task":"memory_phase","broad_category":"M","image_png":"M_Gneiss_13.png","image_id":205,"category_name":"Gneiss","category":13,"distinct_rating":3.26,"distinct_type":"Bottom","rt":null,"stimulus":"Stimuli_Rocks480/M_Gneiss_13.png","response":null,"trial_type":"image-keyboard-response","trial_index":242,"plugin_version":"2.1.0","time_elapsed":622135,"subject_id":"88345","group":"Group1","full_date":"2025-12-04T21:16:41.443Z","date":"2025-12-04","time":"21:16:41"},{"rt":null,"stimulus":"<p style=\"font-size: 50px; margin: 0; text-align: center;\">+</p>","response":null,"trial_type":"html-keyboard-response","trial_index":243,"plugin_version":"2.1.0","time_elapsed":623138,"subject_id":"88345","group":"Group1","full_date":"2025-12-04T21:16:41.443Z","date":"2025-12-04","time":"21:16:41"},{"task":"memory_phase","broad_category":"S","image_png":"S_Shale_08.png","image_id":472,"category_name":"Shale","category":30,"distinct_rating":2.55,"distinct_type":"Bottom","rt":null,"stimulus":"Stimuli_Rocks480/S_Shale_08.png","response":null,"trial_type":"image-keyboard-response","trial_index":244,"plugin_version":"2.1.0","time_elapsed":625659,"subject_id":"88345","group":"Group1","full_date":"2025-12-04T21:16:41.443Z","date":"2025-12-04","time":"21:16:41"},{"rt":null,"stimulus":"<p style=\"font-size: 50px; margin: 0; text-align: center;\">+</p>","response":null,"trial_type":"html-keyboard-response","trial_index":245,"plugin_version":"2.1.0","time_elapsed":626662,"subject_id":"88345","group":"Group1","full_date":"2025-12-04T21:16:41.443Z","date":"2025-12-04","time":"21:16:41"},{"task":"memory_phase","broad_category":"I","image_png":"I_Diorite_04.png","image_id":36,"category_name":"Diorite","category":3,"distinct_rating":2.98,"distinct_type":"Bottom","rt":null,"stimulus":"Stimuli_Rocks480/I_Diorite_04.png","response":null,"trial_type":"image-keyboard-response","trial_index":246,"plugin_version":"2.1.0","time_elapsed":629181,"subject_id":"88345","group":"Group1","full_date":"2025-12-04T21:16:41.443Z","date":"2025-12-04","time":"21:16:41"},{"rt":null,"stimulus":"<p style=\"font-size: 50px; margin: 0; text-align: center;\">+</p>","response":null,"trial_type":"html-keyboard-response","trial_index":247,"plugin_version":"2.1.0","time_elapsed":630183,"subject_id":"88345","group":"Group1","full_date":"2025-12-04T21:16:41.443Z","date":"2025-12-04","time":"21:16:41"},{"task":"memory_phase","broad_category":"I","image_png":"I_Pumice_11.png","image_id":139,"category_name":"Pumice","category":9,"distinct_rating":1.74,"distinct_type":"Bottom","rt":null,"stimulus":"Stimuli_Rocks480/I_Pumice_11.png","response":null,"trial_type":"image-keyboard-response","trial_index":248,"plugin_version":"2.1.0","time_elapsed":632696,