[{"width":1512,"height":823,"webaudio":true,"browser":"chrome","browser_version":"142.0.0","mobile":false,"os":"Mac OS","fullscreen":true,"vsync_rate":119.5,"webcam":true,"microphone":true,"trial_type":"browser-check","trial_index":0,"plugin_version":"2.1.0","time_elapsed":509,"subject_id":"90061","group":"Group1","full_date":"2025-12-06T20:17:57.722Z","date":"2025-12-06","time":"20:17:57"},{"success":true,"timeout":false,"failed_images":[],"failed_audio":[],"failed_video":[],"trial_type":"preload","trial_index":1,"plugin_version":"2.1.0","time_elapsed":1078,"subject_id":"90061","group":"Group1","full_date":"2025-12-06T20:17:57.722Z","date":"2025-12-06","time":"20:17:57"},{"rt":4505,"url":"SONA_consent_memorability.html","trial_type":"external-html","trial_index":2,"plugin_version":"2.1.0","time_elapsed":5626,"subject_id":"90061","group":"Group1","full_date":"2025-12-06T20:17:57.722Z","date":"2025-12-06","time":"20:17:57"},{"success":true,"rt":961,"trial_type":"fullscreen","trial_index":3,"plugin_version":"2.1.0","time_elapsed":7590,"subject_id":"90061","group":"Group1","full_date":"2025-12-06T20:17:57.722Z","date":"2025-12-06","time":"20:17:57"},{"rt":8466,"stimulus":"<div style=\"max-width: 760px; margin: auto; font-size: 20px; line-height: 1.5;\">\n      <h1 style=\"text-align:center; font-size: 30px;\">Instructions</h1>\n      <p>\n        Welcome to the study on <b>visual memory</b>. This experiment consists of <b>two phases</b>: \n        a <b>study phase</b> and a <b>test phase</b>.\n      </p>\n      <p>\n        In the study phase, you will see a series of rock images along with their category labels.\n        The images will appear one at a time.\n        <b>Your task</b> is to learn the categories to which the rock images belong \n        and to remember each image as accurately as possible.\n      </p> \n      <p>\n        Note that we will repeat the study phase <b>3 times</b>, \n        so you will have multiple opportunities to see and remember each image.\n      </p>\n      <p>\n        After the study phase, <b>your memory will be tested</b>. \n        Additional instructions for the test phase will be provided at that time.\n      </p>\n      <p>\n        If your computer has multiple <b>language settings</b> (e.g., English and another language),\n        please make sure it is set to English before starting.\n      </p>\n      <p>\n        You can track your progress using the <b>completion bar</b> at the top of the screen. \n        Please note that the bar will refresh when the test phase begins \n        to give you an accurate sense of your progress in both phases.\n      </p> \n      <p>\n        Press the button below when you are ready to begin.\n      </p>\n    </div>","response":0,"trial_type":"html-button-response","trial_index":4,"plugin_version":"2.1.0","time_elapsed":16060,"subject_id":"90061","group":"Group1","full_date":"2025-12-06T20:17:57.722Z","date":"2025-12-06","time":"20:17:57"},{"rt":null,"stimulus":"<p style=\"font-size: 50px; margin: 0; text-align: center;\">+</p>","response":null,"trial_type":"html-keyboard-response","trial_index":5,"plugin_version":"2.1.0","time_elapsed":17064,"subject_id":"90061","group":"Group1","full_date":"2025-12-06T20:17:57.722Z","date":"2025-12-06","time":"20:17:57"},{"task":"memory_phase","broad_category":"M","image_png":"M_Phyllite_07.png","image_id":263,"category_name":"Phyllite","category":17,"distinct_rating":2.59,"distinct_type":"Bottom","rt":null,"stimulus":"Stimuli_Rocks480/M_Phyllite_07.png","response":null,"trial_type":"image-keyboard-response","trial_index":6,"plugin_version":"2.1.0","time_elapsed":19568,"subject_id":"90061","group":"Group1","full_date":"2025-12-06T20:17:57.722Z","date":"2025-12-06","time":"20:17:57"},{"rt":null,"stimulus":"<p style=\"font-size: 50px; margin: 0; text-align: center;\">+</p>","response":null,"trial_type":"html-keyboard-response","trial_index":7,"plugin_version":"2.1.0","time_elapsed":20571,"subject_id":"90061","group":"Group1","full_date":"2025-12-06T20:17:57.722Z","date":"2025-12-06","time":"20:17:57"},{"task":"memory_phase","broad_category":"S","image_png":"S_Rock Salt_01.png","image_id":433,"category_name":"Rock Salt","category":28,"distinct_rating":7.18,"distinct_type":"Top","rt":null,"stimulus":"Stimuli_Rocks480/S_Rock Salt_01.png","response":null,"trial_type":"image-keyboard-response","trial_index":8,"plugin_version":"2.1.0","time_elapsed":23075,"subject_id":"90061","group":"Group1","full_date":"2025-12-06T20:17:57.722Z","date":"2025-12-06","time":"20:17:57"},{"rt":null,"stimulus":"<p style=\"font-size: 50px; margin: 0; text-align: center;\">+</p>","response":null,"trial_type":"html-keyboard-response","trial_index":9,"plugin_version":"2.1.0","time_elapsed":24078,"subject_id":"90061","group":"Group1","full_date":"2025-12-06T20:17:57.722Z","date":"2025-12-06","time":"20:17:57"},{"task":"memory_phase","broad_category":"I","image_png":"I_Pumice_11.png","image_id":139,"category_name":"Pumice","category":9,"distinct_rating":1.74,"distinct_type":"Bottom","rt":null,"stimulus":"Stimuli_Rocks480/I_Pumice_11.png","response":null,"trial_type":"image-keyboard-response","trial_index":10,"plugin_version":"2.1.0","time_elapsed":26582,"subject_id":"90061","group":"Group1","full_date":"2025-12-06T20:17:57.722Z","date":"2025-12-06","time":"20:17:57"},{"rt":null,"stimulus":"<p style=\"font-size: 50px; margin: 0; text-align: center;\">+</p>","response":null,"trial_type":"html-keyboard-response","trial_index":11,"plugin_version":"2.1.0","time_elapsed":27585,"subject_id":"90061","group":"Group1","full_date":"2025-12-06T20:17:57.722Z","date":"2025-12-06","time":"20:17:57"},{"task":"memory_phase","broad_category":"I","image_png":"I_Andesite_08.png","image_id":8,"category_name":"Andesite","category":1,"distinct_rating":1.95,"distinct_type":"Bottom","rt":null,"stimulus":"Stimuli_Rocks480/I_Andesite_08.png","response":null,"trial_type":"image-keyboard-response","trial_index":12,"plugin_version":"2.1.0","time_elapsed":30089,"subject_id":"90061","group":"Group1","full_date":"2025-12-06T20:17:57.722Z","date":"2025-12-06","time":"20:17:57"},{"rt":null,"stimulus":"<p style=\"font-size: 50px; margin: 0; text-align: center;\">+</p>","response":null,"trial_type":"html-keyboard-response","trial_index":13,"plugin_version":"2.1.0","time_elapsed":31090,"subject_id":"90061","group":"Group1","full_date":"2025-12-06T20:17:57.722Z","date":"2025-12-06","time":"20:17:57"},{"task":"memory_phase","broad_category":"I","image_png":"I_Gabbro_08.png","image_id":56,"category_name":"Gabbro","category":4,"distinct_rating":3.02,"distinct_type":"Bottom","rt":null,"stimulus":"Stimuli_Rocks480/I_Gabbro_08.png","response":null,"trial_type":"image-keyboard-response","trial_index":14,"plugin_version":"2.1.0","time_elapsed":33592,"subject_id":"90061","group":"Group1","full_date":"2025-12-06T20:17:57.722Z","date":"2025-12-06","time":"20:17:57"},{"rt":null,"stimulus":"<p style=\"font-size: 50px; margin: 0; text-align: center;\">+</p>","response":null,"trial_type":"html-keyboard-response","trial_index":15,"plugin_version":"2.1.0","time_elapsed":34594,"subject_id":"90061","group":"Group1","full_date":"2025-12-06T20:17:57.722Z","date":"2025-12-06","time":"20:17:57"},{"task":"memory_phase","broad_category":"M","image_png":"M_Phyllite_03.png","image_id":259,"category_name":"Phyllite","category":17,"distinct_rating":2.5,"distinct_type":"Bottom","rt":null,"stimulus":"Stimuli_Rocks480/M_Phyllite_03.png","response":null,"trial_type":"image-keyboard-response","trial_index":16,"plugin_version":"2.1.0","time_elapsed":37097,"subject_id":"90061","group":"Group1","full_date":"2025-12-06T20:17:57.722Z","date":"2025-12-06","time":"20:17:57"},{"rt":null,"stimulus":"<p style=\"font-size: 50px; margin: 0; text-align: center;\">+</p>","response":null,"trial_type":"html-keyboard-response","trial_index":17,"plugin_version":"2.1.0","time_elapsed":38099,"subject_id":"90061","group":"Group1","full_date":"2025-12-06T20:17:57.722Z","date":"2025-12-06","time":"20:17:57"},{"task":"memory_phase","broad_category":"I","image_png":"I_Pumice_12.png","image_id":140,"category_name":"Pumice","category":9,"distinct_rating":2.97,"distinct_type":"Bottom","rt":null,"stimulus":"Stimuli_Rocks480/I_Pumice_12.png","response":null,"trial_type":"image-keyboard-response","trial_index":18,"plugin_version":"2.1.0","time_elapsed":40603,"subject_id":"90061","group":"Group1","full_date":"2025-12-06T20:17:57.722Z","date":"2025-12-06","time":"20:17:57"},{"rt":null,"stimulus":"<p style=\"font-size: 50px; margin: 0; text-align: center;\">+</p>","response":null,"trial_type":"html-keyboard-response","trial_index":19,"plugin_version":"2.1.0","time_elapsed":41605,"subject_id":"90061","group":"Group1","full_date":"2025-12-06T20:17:57.722Z","date":"2025-12-06","time":"20:17:57"},{"task":"memory_phase","broad_category":"S","image_png":"S_Dolomite_14.png","image_id":398,"category_name":"Dolomite","category":25,"distinct_rating":1.43,"distinct_type":"Bottom","rt":null,"stimulus":"Stimuli_Rocks480/S_Dolomite_14.png","response":null,"trial_type":"image-keyboard-response","trial_index":20,"plugin_version":"2.1.0","time_elapsed":44109,"subject_id":"90061","group":"Group1","full_date":"2025-12-06T20:17:57.722Z","date":"2025-12-06","time":"20:17:57"},{"rt":null,"stimulus":"<p style=\"font-size: 50px; margin: 0; text-align: center;\">+</p>","response":null,"trial_type":"html-keyboard-response","trial_index":21,"plugin_version":"2.1.0","time_elapsed":45111,"subject_id":"90061","group":"Group1","full_date":"2025-12-06T20:17:57.722Z","date":"2025-12-06","time":"20:17:57"},{"task":"memory_phase","broad_category":"I","image_png":"I_Gabbro_11.png","image_id":59,"category_name":"Gabbro","category":4,"distinct_rating":1.99,"distinct_type":"Bottom","rt":null,"stimulus":"Stimuli_Rocks480/I_Gabbro_11.png","response":null,"trial_type":"image-keyboard-response","trial_index":22,"plugin_version":"2.1.0","time_elapsed":47614,"subject_id":"90061","group":"Group1","full_date":"2025-12-06T20:17:57.722Z","date":"2025-12-06","time":"20:17:57"},{"rt":null,"stimulus":"<p style=\"font-size: 50px; margin: 0; text-align: center;\">+</p>","response":null,"trial_type":"html-keyboard-response","trial_index":23,"plugin_version":"2.1.0","time_elapsed":48617,"subject_id":"90061","group":"Group1","full_date":"2025-12-06T20:17:57.722Z","date":"2025-12-06","time":"20:17:57"},{"task":"memory_phase","broad_category":"M","image_png":"M_Quartzite_08.png","image_id":280,"category_name":"Quartzite","category":18,"distinct_rating":2.15,"distinct_type":"Bottom","rt":null,"stimulus":"Stimuli_Rocks480/M_Quartzite_08.png","response":null,"trial_type":"image-keyboard-response","trial_index":24,"plugin_version":"2.1.0","time_elapsed":51120,"subject_id":"90061","group":"Group1","full_date":"2025-12-06T20:17:57.722Z","date":"2025-12-06","time":"20:17:57"},{"rt":null,"stimulus":"<p style=\"font-size: 50px; margin: 0; text-align: center;\">+</p>","response":null,"trial_type":"html-keyboard-response","trial_index":25,"plugin_version":"2.1.0","time_elapsed":52123,"subject_id":"90061","group":"Group1","full_date":"2025-12-06T20:17:57.722Z","date":"2025-12-06","time":"20:17:57"},{"task":"memory_phase","broad_category":"M","image_png":"M_Marble_06.png","image_id":230,"category_name":"Marble","category":15,"distinct_rating":3.4,"distinct_type":"Bottom","rt":null,"stimulus":"Stimuli_Rocks480/M_Marble_06.png","response":null,"trial_type":"image-keyboard-response","trial_index":26,"plugin_version":"2.1.0","time_elapsed":54626,"subject_id":"90061","group":"Group1","full_date":"2025-12-06T20:17:57.722Z","date":"2025-12-06","time":"20:17:57"},{"rt":null,"stimulus":"<p style=\"font-size: 50px; margin: 0; text-align: center;\">+</p>","response":null,"trial_type":"html-keyboard-response","trial_index":27,"plugin_version":"2.1.0","time_elapsed":55629,"subject_id":"90061","group":"Group1","full_date":"2025-12-06T20:17:57.722Z","date":"2025-12-06","time":"20:17:57"},{"task":"memory_phase","broad_category":"M","image_png":"M_Slate_15.png","image_id":319,"category_name":"Slate","category":20,"distinct_rating":2.13,"distinct_type":"Bottom","rt":null,"stimulus":"Stimuli_Rocks480/M_Slate_15.png","response":null,"trial_type":"image-keyboard-response","trial_index":28,"plugin_version":"2.1.0","time_elapsed":58132,"subject_id":"90061","group":"Group1","full_date":"2025-12-06T20:17:57.722Z","date":"2025-12-06","time":"20:17:57"},{"rt":null,"stimulus":"<p style=\"font-size: 50px; margin: 0; text-align: center;\">+</p>","response":null,"trial_type":"html-keyboard-response","trial_index":29,"plugin_version":"2.1.0","time_elapsed":59138,"subject_id":"90061","group":"Group1","full_date":"2025-12-06T20:17:57.722Z","date":"2025-12-06","time":"20:17:57"},{"task":"memory_phase","broad_category":"I","image_png":"I_Rhyolite_11.png","image_id":155,"category_name":"Rhyolite","category":10,"distinct_rating":1.73,"distinct_type":"Bottom","rt":null,"stimulus":"Stimuli_Rocks480/I_Rhyolite_11.png","response":null,"trial_type":"image-keyboard-response","trial_index":30,"plugin_version":"2.1.0","time_elapsed":61640,"subject_id":"90061","group":"Group1","full_date":"2025-12-06T20:17:57.722Z","date":"2025-12-06","time":"20:17:57"},{"rt":null,"stimulus":"<p style=\"font-size: 50px; margin: 0; text-align: center;\">+</p>","response":null,"trial_type":"html-keyboard-response","trial_index":31,"plugin_version":"2.1.0","time_elapsed":62643,"subject_id":"90061","group":"Group1","full_date":"2025-12-06T20:17:57.722Z","date":"2025-12-06","time":"20:17:57"},{"task":"memory_phase","broad_category":"M","image_png":"M_Gneiss_13.png","image_id":205,"category_name":"Gneiss","category":13,"distinct_rating":3.26,"distinct_type":"Bottom","rt":null,"stimulus":"Stimuli_Rocks480/M_Gneiss_13.png","response":null,"trial_type":"image-keyboard-response","trial_index":32,"plugin_version":"2.1.0","time_elapsed":65146,"subject_id":"90061","group":"Group1","full_date":"2025-12-06T20:17:57.722Z","date":"2025-12-06","time":"20:17:57"},{"rt":null,"stimulus":"<p style=\"font-size: 50px; margin: 0; text-align: center;\">+</p>","response":null,"trial_type":"html-keyboard-response","trial_index":33,"plugin_version":"2.1.0","time_elapsed":66148,"subject_id":"90061","group":"Group1","full_date":"2025-12-06T20:17:57.722Z","date":"2025-12-06","time":"20:17:57"},{"task":"memory_phase","broad_category":"I","image_png":"I_Andesite_06.png","image_id":6,"category_name":"Andesite","category":1,"distinct_rating":3.17,"distinct_type":"Bottom","rt":null,"stimulus":"Stimuli_Rocks480/I_Andesite_06.png","response":null,"trial_type":"image-keyboard-response","trial_index":34,"plugin_version":"2.1.0","time_elapsed":68651,"subject_id":"90061","group":"Group1","full_date":"2025-12-06T20:17:57.722Z","date":"2025-12-06","time":"20:17:57"},{"rt":null,"stimulus":"<p style=\"font-size: 50px; margin: 0; text-align: center;\">+</p>","response":null,"trial_type":"html-keyboard-response","trial_index":35,"plugin_version":"2.1.0","time_elapsed":69654,"subject_id":"90061","group":"Group1","full_date":"2025-12-06T20:17:57.722Z","date":"2025-12-06","time":"20:17:57"},{"task":"memory_phase","broad_category":"M","image_png":"M_Quartzite_05.png","image_id":277,"category_name":"Quartzite","category":18,"distinct_rating":2.23,"distinct_type":"Bottom","rt":null,"stimulus":"Stimuli_Rocks480/M_Quartzite_05.png","response":null,"trial_type":"image-keyboard-response","trial_index":36,"plugin_version":"2.1.0","time_elapsed":72158,"subject_id":"90061","group":"Group1","full_date":"2025-12-06T20:17:57.722Z","date":"2025-12-06","time":"20:17:57"},{"rt":null,"stimulus":"<p style=\"font-size: 50px; margin: 0; text-align: center;\">+</p>","response":null,"trial_type":"html-keyboard-response","trial_index":37,"plugin_version":"2.1.0","time_elapsed":73160,"subject_id":"90061","group":"Group1","full_date":"2025-12-06T20:17:57.722Z","date":"2025-12-06","time":"20:17:57"},{"task":"memory_phase","broad_category":"S","image_png":"S_Dolomite_12.png","image_id":396,"category_name":"Dolomite","category":25,"distinct_rating":1.85,"distinct_type":"Bottom","rt":null,"stimulus":"Stimuli_Rocks480/S_Dolomite_12.png","response":null,"trial_type":"image-keyboard-response","trial_index":38,"plugin_version":"2.1.0","time_elapsed":75663,"subject_id":"90061","group":"Group1","full_date":"2025-12-06T20:17:57.722Z","date":"2025-12-06","time":"20:17:57"},{"rt":null,"stimulus":"<p style=\"font-size: 50px; margin: 0; text-align: center;\">+</p>","response":null,"trial_type":"html-keyboard-response","trial_index":39,"plugin_version":"2.1.0","time_elapsed":76666,"subject_id":"90061","group":"Group1","full_date":"2025-12-06T20:17:57.722Z","date":"2025-12-06","time":"20:17:57"},{"task":"memory_phase","broad_category":"I","image_png":"I_Andesite_10.png","image_id":10,"category_name":"Andesite","category":1,"distinct_rating":3.15,"distinct_type":"Bottom","rt":null,"stimulus":"Stimuli_Rocks480/I_Andesite_10.png","response":null,"trial_type":"image-keyboard-response","trial_index":40,"plugin_version":"2.1.0","time_elapsed":79169,"subject_id":"90061","group":"Group1","full_date":"2025-12-06T20:17:57.722Z","date":"2025-12-06","time":"20:17:57"},{"rt":null,"stimulus":"<p style=\"font-size: 50px; margin: 0; text-align: center;\">+</p>","response":null,"trial_type":"html-keyboard-response","trial_index":41,"plugin_version":"2.1.0","time_elapsed":80171,"subject_id":"90061","group":"Group1","full_date":"2025-12-06T20:17:57.722Z","date":"2025-12-06","time":"20:17:57"},{"task":"memory_phase","broad_category":"I","image_png":"I_Basalt_02.png","image_id":18,"category_name":"Basalt","category":2,"distinct_rating":1.84,"distinct_type":"Bottom","rt":null,"stimulus":"Stimuli_Rocks480/I_Basalt_02.png","response":null,"trial_type":"image-keyboard-response","trial_index":42,"plugin_version":"2.1.0","time_elapsed":82673,"subject_id":"90061","group":"Group1","full_date":"2025-12-06T20:17:57.722Z","date":"2025-12-06","time":"20:17:57"},{"rt":null,"stimulus":"<p style=\"font-size: 50px; margin: 0; text-align: center;\">+</p>","response":null,"trial_type":"html-keyboard-response","trial_index":43,"plugin_version":"2.1.0","time_elapsed":83676,"subject_id":"90061","group":"Group1","full_date":"2025-12-06T20:17:57.722Z","date":"2025-12-06","time":"20:17:57"},{"task":"memory_phase","broad_category":"I","image_png":"I_Pegmatite_16.png","image_id":112,"category_name":"Pegmatite","category":7,"distinct_rating":7.03,"distinct_type":"Top","rt":null,"stimulus":"Stimuli_Rocks480/I_Pegmatite_16.png","response":null,"trial_type":"image-keyboard-response","trial_index":44,"plugin_version":"2.1.0","time_elapsed":86184,"subject_id":"90061","group":"Group1","full_date":"2025-12-06T20:17:57.722Z","date":"2025-12-06","time":"20:17:57"},{"rt":null,"stimulus":"<p style=\"font-size: 50px; margin: 0; text-align: center;\">+</p>","response":null,"trial_type":"html-keyboard-response","trial_index":45,"plugin_version":"2.1.0","time_elapsed":87186,"subject_id":"90061","group":"Group1","full_date":"2025-12-06T20:17:57.722Z","date":"2025-12-06","time":"20:17:57"},{"task":"memory_phase","broad_category":"I","image_png":"I_Diorite_05.png","image_id":37,"category_name":"Diorite","category":3,"distinct_rating":3.08,"distinct_type":"Bottom","rt":null,"stimulus":"Stimuli_Rocks480/I_Diorite_05.png","response":null,"trial_type":"image-keyboard-response","trial_index":46,"plugin_version":"2.1.0","time_elapsed":89689,"subject_id":"90061","group":"Group1","full_date":"2025-12-06T20:17:57.722Z","date":"2025-12-06","time":"20:17:57"},{"rt":null,"stimulus":"<p style=\"font-size: 50px; margin: 0; text-align: center;\">+</p>","response":null,"trial_type":"html-keyboard-response","trial_index":47,"plugin_version":"2.1.0","time_elapsed":90691,"subject_id":"90061","group":"Group1","full_date":"2025-12-06T20:17:57.722Z","date":"2025-12-06","time":"20:17:57"},{"task":"memory_phase","broad_category":"I","image_png":"I_Rhyolite_16.png","image_id":160,"category_name":"Rhyolite","category":10,"distinct_rating":2.19,"distinct_type":"Bottom","rt":null,"stimulus":"Stimuli_Rocks480/I_Rhyolite_16.png","response":null,"trial_type":"image-keyboard-response","trial_index":48,"plugin_version":"2.1.0","time_elapsed":93194,"subject_id":"90061","group":"Group1","full_date":"2025-12-06T20:17:57.722Z","date":"2025-12-06","time":"20:17:57"},{"rt":null,"stimulus":"<p style=\"font-size: 50px; margin: 0; text-align: center;\">+</p>","response":null,"trial_type":"html-keyboard-response","trial_index":49,"plugin_version":"2.1.0","time_elapsed":94196,"subject_id":"90061","group":"Group1","full_date":"2025-12-06T20:17:57.722Z","date":"2025-12-06","time":"20:17:57"},{"task":"memory_phase","broad_category":"M","image_png":"M_Marble_16.png","image_id":240,"category_name":"Marble","category":15,"distinct_rating":2.57,"distinct_type":"Bottom","rt":null,"stimulus":"Stimuli_Rocks480/M_Marble_16.png","response":null,"trial_type":"image-keyboard-response","trial_index":50,"plugin_version":"2.1.0","time_elapsed":96698,"subject_id":"90061","group":"Group1","full_date":"2025-12-06T20:17:57.722Z","date":"2025-12-06","time":"20:17:57"},{"rt":null,"stimulus":"<p style=\"font-size: 50px; margin: 0; text-align: center;\">+</p>","response":null,"trial_type":"html-keyboard-response","trial_index":51,"plugin_version":"2.1.0","time_elapsed":97701,"subject_id":"90061","group":"Group1","full_date":"2025-12-06T20:17:57.722Z","date":"2025-12-06","time":"20:17:57"},{"task":"memory_phase","broad_category":"S","image_png":"S_Chert_10.png","image_id":362,"category_name":"Chert","category":23,"distinct_rating":7.17,"distinct_type":"Top","rt":null,"stimulus":"Stimuli_Rocks480/S_Chert_10.png","response":null,"trial_type":"image-keyboard-response","trial_index":52,"plugin_version":"2.1.0","time_elapsed":100204,"subject_id":"90061","group":"Group1","full_date":"2025-12-06T20:17:57.722Z","date":"2025-12-06","time":"20:17:57"},{"rt":null,"stimulus":"<p style=\"font-size: 50px; margin: 0; text-align: center;\">+</p>","response":null,"trial_type":"html-keyboard-response","trial_index":53,"plugin_version":"2.1.0","time_elapsed":101211,"subject_id":"90061","group":"Group1","full_date":"2025-12-06T20:17:57.722Z","date":"2025-12-06","time":"20:17:57"},{"task":"memory_phase","broad_category":"S","image_png":"S_Conglomerate_05.png","image_id":373,"category_name":"Conglomerate","category":24,"distinct_rating":7.32,"distinct_type":"Top","rt":null,"stimulus":"Stimuli_Rocks480/S_Conglomerate_05.png","response":null,"trial_type":"image-keyboard-response","trial_index":54,"plugin_version":"2.1.0","time_elapsed":103714,"subject_id":"90061","group":"Group1","full_date":"2025-12-06T20:17:57.722Z","date":"2025-12-06","time":"20:17:57"},{"rt":59839,"stimulus":"<p style=\"max-width: 760px; margin: auto; font-size: 35px; line-height: 1.5;\">Press SPACE to continue study phase</p>","response":" ","trial_type":"html-keyboard-response","trial_index":55,"plugin_version":"2.1.0","time_elapsed":412668,"subject_id":"90061","group":"Group1","full_date":"2025-12-06T20:17:57.722Z","date":"2025-12-06","time":"20:17:57"},{"rt":null,"stimulus":"<p style=\"font-size: 50px; margin: 0; text-align: center;\">+</p>","response":null,"trial_type":"html-keyboard-response","trial_index":56,"plugin_version":"2.1.0","time_elapsed":413671,"subject_id":"90061","group":"Group1","full_date":"2025-12-06T20:17:57.722Z","date":"2025-12-06","time":"20:17:57"},{"task":"memory_phase","broad_category":"M","image_png":"M_Gneiss_06.png","image_id":198,"category_name":"Gneiss","category":13,"distinct_rating":2.65,"distinct_type":"Bottom","rt":null,"stimulus":"Stimuli_Rocks480/M_Gneiss_06.png","response":null,"trial_type":"image-keyboard-response","trial_index":57,"plugin_version":"2.1.0","time_elapsed":416174,"subject_id":"90061","group":"Group1","full_date":"2025-12-06T20:17:57.722Z","date":"2025-12-06","time":"20:17:57"},{"rt":null,"stimulus":"<p style=\"font-size: 50px; margin: 0; text-align: center;\">+</p>","response":null,"trial_type":"html-keyboard-response","trial_index":58,"plugin_version":"2.1.0","time_elapsed":417177,"subject_id":"90061","group":"Group1","full_date":"2025-12-06T20:17:57.722Z","date":"2025-12-06","time":"20:17:57"},{"task":"memory_phase","broad_category":"I","image_png":"I_Obsidian_05.png","image_id":85,"category_name":"Obsidian","category":6,"distinct_rating":7.32,"distinct_type":"Top","rt":null,"stimulus":"Stimuli_Rocks480/I_Obsidian_05.png","response":null,"trial_type":"image-keyboard-response","trial_index":59,"plugin_version":"2.1.0","time_elapsed":419679,"subject_id":"90061","group":"Group1","full_date":"2025-12-06T20:17:57.722Z","date":"2025-12-06","time":"20:17:57"},{"rt":null,"stimulus":"<p style=\"font-size: 50px; margin: 0; text-align: center;\">+</p>","response":null,"trial_type":"html-keyboard-response","trial_index":60,"plugin_version":"2.1.0","time_elapsed":420682,"subject_id":"90061","group":"Group1","full_date":"2025-12-06T20:17:57.722Z","date":"2025-12-06","time":"20:17:57"},{"task":"memory_phase","broad_category":"I","image_png":"I_Rhyolite_14.png","image_id":158,"category_name":"Rhyolite","category":10,"distinct_rating":2.59,"distinct_type":"Bottom","rt":null,"stimulus":"Stimuli_Rocks480/I_Rhyolite_14.png","response":null,"trial_type":"image-keyboard-response","trial_index":61,"plugin_version":"2.1.0","time_elapsed":423184,"subject_id":"90061","group":"Group1","full_date":"2025-12-06T20:17:57.722Z","date":"2025-12-06","time":"20:17:57"},{"rt":null,"stimulus":"<p style=\"font-size: 50px; margin: 0; text-align: center;\">+</p>","response":null,"trial_type":"html-keyboard-response","trial_index":62,"plugin_version":"2.1.0","time_elapsed":424187,"subject_id":"90061","group":"Group1","full_date":"2025-12-06T20:17:57.722Z","date":"2025-12-06","time":"20:17:57"},{"task":"memory_phase","broad_category":"S","image_png":"S_Shale_12.png","image_id":476,"category_name":"Shale","category":30,"distinct_rating":2.48,"distinct_type":"Bottom","rt":null,"stimulus":"Stimuli_Rocks480/S_Shale_12.png","response":null,"trial_type":"image-keyboard-response","trial_index":63,"plugin_version":"2.1.0","time_elapsed":426690,"subject_id":"90061","group":"Group1","full_date":"2025-12-06T20:17:57.722Z","date":"2025-12-06","time":"20:17:57"},{"rt":null,"stimulus":"<p style=\"font-size: 50px; margin: 0; text-align: center;\">+</p>","response":null,"trial_type":"html-keyboard-response","trial_index":64,"plugin_version":"2.1.0","time_elapsed":427693,"subject_id":"90061","group":"Group1","full_date":"2025-12-06T20:17:57.722Z","date":"2025-12-06","time":"20:17:57"},{"task":"memory_phase","broad_category":"M","image_png":"M_Quartzite_13.png","image_id":285,"category_name":"Quartzite","category":18,"distinct_rating":2.27,"distinct_type":"Bottom","rt":null,"stimulus":"Stimuli_Rocks480/M_Quartzite_13.png","response":null,"trial_type":"image-keyboard-response","trial_index":65,"plugin_version":"2.1.0","time_elapsed":430196,"subject_id":"90061","group":"Group1","full_date":"2025-12-06T20:17:57.722Z","date":"2025-12-06","time":"20:17:57"},{"rt":null,"stimulus":"<p style=\"font-size: 50px; margin: 0; text-align: center;\">+</p>","response":null,"trial_type":"html-keyboard-response","trial_index":66,"plugin_version":"2.1.0","time_elapsed":431198,"subject_id":"90061","group":"Group1","full_date":"2025-12-06T20:17:57.722Z","date":"2025-12-06","time":"20:17:57"},{"task":"memory_phase","broad_category":"I","image_png":"I_Gabbro_16.png","image_id":64,"category_name":"Gabbro","category":4,"distinct_rating":2.52,"distinct_type":"Bottom","rt":null,"stimulus":"Stimuli_Rocks480/I_Gabbro_16.png","response":null,"trial_type":"image-keyboard-response","trial_index":67,"plugin_version":"2.1.0","time_elapsed":433701,"subject_id":"90061","group":"Group1","full_date":"2025-12-06T20:17:57.722Z","date":"2025-12-06","time":"20:17:57"},{"rt":null,"stimulus":"<p style=\"font-size: 50px; margin: 0; text-align: center;\">+</p>","response":null,"trial_type":"html-keyboard-response","trial_index":68,"plugin_version":"2.1.0","time_elapsed":434704,"subject_id":"90061","group":"Group1","full_date":"2025-12-06T20:17:57.722Z","date":"2025-12-06","time":"20:17:57"},{"task":"memory_phase","broad_category":"I","image_png":"I_Pumice_08.png","image_id":136,"category_name":"Pumice","category":9,"distinct_rating":3.1,"distinct_type":"Bottom","rt":null,"stimulus":"Stimuli_Rocks480/I_Pumice_08.png","response":null,"trial_type":"image-keyboard-response","trial_index":69,"plugin_version":"2.1.0","time_elapsed":437206,"subject_id":"90061","group":"Group1","full_date":"2025-12-06T20:17:57.722Z","date":"2025-12-06","time":"20:17:57"},{"rt":null,"stimulus":"<p style=\"font-size: 50px; margin: 0; text-align: center;\">+</p>","response":null,"trial_type":"html-keyboard-response","trial_index":70,"plugin_version":"2.1.0","time_elapsed":438207,"subject_id":"90061","group":"Group1","full_date":"2025-12-06T20:17:57.722Z","date":"2025-12-06","time":"20:17:57"},{"task":"memory_phase","broad_category":"S","image_png":"S_Sandstone_16.png","image_id":464,"category_name":"Sandstone","category":29,"distinct_rating":1.93,"distinct_type":"Bottom","rt":null,"stimulus":"Stimuli_Rocks480/S_Sandstone_16.png","response":null,"trial_type":"image-keyboard-response","trial_index":71,"plugin_version":"2.1.0","time_elapsed":440710,"subject_id":"90061","group":"Group1","full_date":"2025-12-06T20:17:57.722Z","date":"2025-12-06","time":"20:17:57"},{"rt":null,"stimulus":"<p style=\"font-size: 50px; margin: 0; text-align: center;\">+</p>","response":null,"trial_type":"html-keyboard-response","trial_index":72,"plugin_version":"2.1.0","time_elapsed":441712,"subject_id":"90061","group":"Group1","full_date":"2025-12-06T20:17:57.722Z","date":"2025-12-06","time":"20:17:57"},{"task":"memory_phase","broad_category":"I","image_png":"I_Pegmatite_10.png","image_id":106,"category_name":"Pegmatite","category":7,"distinct_rating":7.66,"distinct_type":"Top","rt":null,"stimulus":"Stimuli_Rocks480/I_Pegmatite_10.png","response":null,"trial_type":"image-keyboard-response","trial_index":73,"plugin_version":"2.1.0","time_elapsed":444216,"subject_id":"90061","group":"Group1","full_date":"2025-12-06T20:17:57.722Z","date":"2025-12-06","time":"20:17:57"},{"rt":null,"stimulus":"<p style=\"font-size: 50px; margin: 0; text-align: center;\">+</p>","response":null,"trial_type":"html-keyboard-response","trial_index":74,"plugin_version":"2.1.0","time_elapsed":445218,"subject_id":"90061","group":"Group1","full_date":"2025-12-06T20:17:57.722Z","date":"2025-12-06","time":"20:17:57"},{"task":"memory_phase","broad_category":"S","image_png":"S_Shale_08.png","image_id":472,"category_name":"Shale","category":30,"distinct_rating":2.55,"distinct_type":"Bottom","rt":null,"stimulus":"Stimuli_Rocks480/S_Shale_08.png","response":null,"trial_type":"image-keyboard-response","trial_index":75,"plugin_version":"2.1.0","time_elapsed":447721,"subject_id":"90061","group":"Group1","full_date":"2025-12-06T20:17:57.722Z","date":"2025-12-06","time":"20:17:57"},{"rt":null,"stimulus":"<p style=\"font-size: 50px; margin: 0; text-align: center;\">+</p>","response":null,"trial_type":"html-keyboard-response","trial_index":76,"plugin_version":"2.1.0","time_elapsed":448724,"subject_id":"90061","group":"Group1","full_date":"2025-12-06T20:17:57.722Z","date":"2025-12-06","time":"20:17:57"},{"task":"memory_phase","broad_category":"M","image_png":"M_Phyllite_10.png","image_id":266,"category_name":"Phyllite","category":17,"distinct_rating":2.6,"distinct_type":"Bottom","rt":null,"stimulus":"Stimuli_Rocks480/M_Phyllite_10.png","response":null,"trial_type":"image-keyboard-response","trial_index":77,"plugin_version":"2.1.0","time_elapsed":451227,"subject_id":"90061","group":"Group1","full_date":"2025-12-06T20:17:57.722Z","date":"2025-12-06","time":"20:17:57"},{"rt":null,"stimulus":"<p style=\"font-size: 50px; margin: 0; text-align: center;\">+</p>","response":null,"trial_type":"html-keyboard-response","trial_index":78,"plugin_version":"2.1.0","time_elapsed":452229,"subject_id":"90061","group":"Group1","full_date":"2025-12-06T20:17:57.722Z","date":"2025-12-06","time":"20:17:57"},{"task":"memory_phase","broad_category":"M","image_png":"M_Slate_11.png","image_id":315,"category_name":"Slate","category":20,"distinct_rating":2.75,"distinct_type":"Bottom","rt":null,"stimulus":"Stimuli_Rocks480/M_Slate_11.png","response":null,"trial_type":"image-keyboard-response","trial_index":79,"plugin_version":"2.1.0","time_elapsed":454732,"subject_id":"90061","group":"Group1","full_date":"2025-12-06T20:17:57.722Z","date":"2025-12-06","time":"20:17:57"},{"rt":null,"stimulus":"<p style=\"font-size: 50px; margin: 0; text-align: center;\">+</p>","response":null,"trial_type":"html-keyboard-response","trial_index":80,"plugin_version":"2.1.0","time_elapsed":455734,"subject_id":"90061","group":"Group1","full_date":"2025-12-06T20:17:57.722Z","date":"2025-12-06","time":"20:17:57"},{"task":"memory_phase","broad_category":"S","image_png":"S_Sandstone_15.png","image_id":463,"category_name":"Sandstone","category":29,"distinct_rating":2,"distinct_type":"Bottom","rt":null,"stimulus":"Stimuli_Rocks480/S_Sandstone_15.png","response":null,"trial_type":"image-keyboard-response","trial_index":81,"plugin_version":"2.1.0","time_elapsed":458237,"subject_id":"90061","group":"Group1","full_date":"2025-12-06T20:17:57.722Z","date":"2025-12-06","time":"20:17:57"},{"rt":null,"stimulus":"<p style=\"font-size: 50px; margin: 0; text-align: center;\">+</p>","response":null,"trial_type":"html-keyboard-response","trial_index":82,"plugin_version":"2.1.0","time_elapsed":459240,"subject_id":"90061","group":"Group1","full_date":"2025-12-06T20:17:57.722Z","date":"2025-12-06","time":"20:17:57"},{"task":"memory_phase","broad_category":"S","image_png":"S_Breccia_11.png","image_id":347,"category_name":"Breccia","category":22,"distinct_rating":6.7,"distinct_type":"Top","rt":null,"stimulus":"Stimuli_Rocks480/S_Breccia_11.png","response":null,"trial_type":"image-keyboard-response","trial_index":83,"plugin_version":"2.1.0","time_elapsed":461743,"subject_id":"90061","group":"Group1","full_date":"2025-12-06T20:17:57.722Z","date":"2025-12-06","time":"20:17:57"},{"rt":null,"stimulus":"<p style=\"font-size: 50px; margin: 0; text-align: center;\">+</p>","response":null,"trial_type":"html-keyboard-response","trial_index":84,"plugin_version":"2.1.0","time_elapsed":462745,"subject_id":"90061","group":"Group1","full_date":"2025-12-06T20:17:57.722Z","date":"2025-12-06","time":"20:17:57"},{"task":"memory_phase","broad_category":"I","image_png":"I_Basalt_09.png","image_id":25,"category_name":"Basalt","category":2,"distinct_rating":1.89,"distinct_type":"Bottom","rt":null,"stimulus":"Stimuli_Rocks480/I_Basalt_09.png","response":null,"trial_type":"image-keyboard-response","trial_index":85,"plugin_version":"2.1.0","time_elapsed":465248,"subject_id":"90061","group":"Group1","full_date":"2025-12-06T20:17:57.722Z","date":"2025-12-06","time":"20:17:57"},{"rt":null,"stimulus":"<p style=\"font-size: 50px; margin: 0; text-align: center;\">+</p>","response":null,"trial_type":"html-keyboard-response","trial_index":86,"plugin_version":"2.1.0","time_elapsed":466250,"subject_id":"90061","group":"Group1","full_date":"2025-12-06T20:17:57.722Z","date":"2025-12-06","time":"20:17:57"},{"task":"memory_phase","broad_category":"S","image_png":"S_Rock Gypsum_04.png","image_id":420,"category_name":"Rock Gypsum","category":27,"distinct_rating":7.61,"distinct_type":"Top","rt":null,"stimulus":"Stimuli_Rocks480/S_Rock Gypsum_04.png","response":null,"trial_type":"image-keyboard-response","trial_index":87,"plugin_version":"2.1.0","time_elapsed":468753,"subject_id":"90061","group":"Group1","full_date":"2025-12-06T20:17:57.722Z","date":"2025-12-06","time":"20:17:57"},{"rt":null,"stimulus":"<p style=\"font-size: 50px; margin: 0; text-align: center;\">+</p>","response":null,"trial_type":"html-keyboard-response","trial_index":88,"plugin_version":"2.1.0","time_elapsed":469756,"subject_id":"90061","group":"Group1","full_date":"2025-12-06T20:17:57.722Z","date":"2025-12-06","time":"20:17:57"},{"task":"memory_phase","broad_category":"M","image_png":"M_Marble_04.png","image_id":228,"category_name":"Marble","category":15,"distinct_rating":3.15,"distinct_type":"Bottom","rt":null,"stimulus":"Stimuli_Rocks480/M_Marble_04.png","response":null,"trial_type":"image-keyboard-response","trial_index":89,"plugin_version":"2.1.0","time_elapsed":472258,"subject_id":"90061","group":"Group1","full_date":"2025-12-06T20:17:57.722Z","date":"2025-12-06","time":"20:17:57"},{"rt":null,"stimulus":"<p style=\"font-size: 50px; margin: 0; text-align: center;\">+</p>","response":null,"trial_type":"html-keyboard-response","trial_index":90,"plugin_version":"2.1.0","time_elapsed":473260,"subject_id":"90061","group":"Group1","full_date":"2025-12-06T20:17:57.722Z","date":"2025-12-06","time":"20:17:57"},{"task":"memory_phase","broad_category":"I","image_png":"I_Diorite_04.png","image_id":36,"category_name":"Diorite","category":3,"distinct_rating":2.98,"distinct_type":"Bottom","rt":null,"stimulus":"Stimuli_Rocks480/I_Diorite_04.png","response":null,"trial_type":"image-keyboard-response","trial_index":91,"plugin_version":"2.1.0","time_elapsed":475762,"subject_id":"90061","group":"Group1","full_date":"2025-12-06T20:17:57.722Z","date":"2025-12-06","time":"20:17:57"},{"rt":null,"stimulus":"<p style=\"font-size: 50px; margin: 0; text-align: center;\">+</p>","response":null,"trial_type":"html-keyboard-response","trial_index":92,"plugin_version":"2.1.0","time_elapsed":476764,"subject_id":"90061","group":"Group1","full_date":"2025-12-06T20:17:57.722Z","date":"2025-12-06","time":"20:17:57"},{"task":"memory_phase","broad_category":"I","image_png":"I_Basalt_01.png","image_id":17,"category_name":"Basalt","category":2,"distinct_rating":1.92,"distinct_type":"Bottom","rt":null,"stimulus":"Stimuli_Rocks480/I_Basalt_01.png","response":null,"trial_type":"image-keyboard-response","trial_index":93,"plugin_version":"2.1.0","time_elapsed":479268,"subject_id":"90061","group":"Group1","full_date":"2025-12-06T20:17:57.722Z","date":"2025-12-06","time":"20:17:57"},{"rt":null,"stimulus":"<p style=\"font-size: 50px; margin: 0; text-align: center;\">+</p>","response":null,"trial_type":"html-keyboard-response","trial_index":94,"plugin_version":"2.1.0","time_elapsed":480270,"subject_id":"90061","group":"Group1","full_date":"2025-12-06T20:17:57.722Z","date":"2025-12-06","time":"20:17:57"},{"task":"memory_phase","broad_category":"S","image_png":"S_Sandstone_03.png","image_id":451,"category_name":"Sandstone","category":29,"distinct_rating":1.86,"distinct_type":"Bottom","rt":null,"stimulus":"Stimuli_Rocks480/S_Sandstone_03.png","response":null,"trial_type":"image-keyboard-response","trial_index":95,"plugin_version":"2.1.0","time_elapsed":482773,"subject_id":"90061","group":"Group1","full_date":"2025-12-06T20:17:57.722Z","date":"2025-12-06","time":"20:17:57"},{"rt":null,"stimulus":"<p style=\"font-size: 50px; margin: 0; text-align: center;\">+</p>","response":null,"trial_type":"html-keyboard-response","trial_index":96,"plugin_version":"2.1.0","time_elapsed":483774,"subject_id":"90061","group":"Group1","full_date":"2025-12-06T20:17:57.722Z","date":"2025-12-06","time":"20:17:57"},{"task":"memory_phase","broad_category":"I","image_png":"I_Diorite_03.png","image_id":35,"category_name":"Diorite","category":3,"distinct_rating":3.14,"distinct_type":"Bottom","rt":null,"stimulus":"Stimuli_Rocks480/I_Diorite_03.png","response":null,"trial_type":"image-keyboard-response","trial_index":97,"plugin_version":"2.1.0","time_elapsed":486278,"subject_id":"90061","group":"Group1","full_date":"2025-12-06T20:17:57.722Z","date":"2025-12-06","time":"20:17:57"},{"rt":null,"stimulus":"<p style=\"font-size: 50px; margin: 0; text-align: center;\">+</p>","response":null,"trial_type":"html-keyboard-response","trial_index":98,"plugin_version":"2.1.0","time_elapsed":487280,"subject_id":"90061","group":"Group1","full_date":"2025-12-06T20:17:57.722Z","date":"2025-12-06","time":"20:17:57"},{"task":"memory_phase","broad_category":"S","image_png":"S_Dolomite_13.png","image_id":397,"category_name":"Dolomite","category":25,"distinct_rating":1.77,"distinct_type":"Bottom","rt":null,"stimulus":"Stimuli_Rocks480/S_Dolomite_13.png","response":null,"trial_type":"image-keyboard-response","trial_index":99,"plugin_version":"2.1.0","time_elapsed":489783,"subject_id":"90061","group":"Group1","full_date":"2025-12-06T20:17:57.722Z","date":"2025-12-06","time":"20:17:57"},{"rt":null,"stimulus":"<p style=\"font-size: 50px; margin: 0; text-align: center;\">+</p>","response":null,"trial_type":"html-keyboard-response","trial_index":100,"plugin_version":"2.1.0","time_elapsed":490785,"subject_id":"90061","group":"Group1","full_date":"2025-12-06T20:17:57.722Z","date":"2025-12-06","time":"20:17:57"},{"task":"memory_phase","broad_category":"M","image_png":"M_Gneiss_05.png","image_id":197,"category_name":"Gneiss","category":13,"distinct_rating":2.97,"distinct_type":"Bottom","rt":null,"stimulus":"Stimuli_Rocks480/M_Gneiss_05.png","response":null,"trial_type":"image-keyboard-response","trial_index":101,"plugin_version":"2.1.0","time_elapsed":493288,"subject_id":"90061","group":"Group1","full_date":"2025-12-06T20:17:57.722Z","date":"2025-12-06","time":"20:17:57"},{"rt":null,"stimulus":"<p style=\"font-size: 50px; margin: 0; text-align: center;\">+</p>","response":null,"trial_type":"html-keyboard-response","trial_index":102,"plugin_version":"2.1.0","time_elapsed":494290,"subject_id":"90061","group":"Group1","full_date":"2025-12-06T20:17:57.722Z","date":"2025-12-06","time":"20:17:57"},{"task":"memory_phase","broad_category":"M","image_png":"M_Slate_03.png","image_id":307,"category_name":"Slate","category":20,"distinct_rating":1.87,"distinct_type":"Bottom","rt":null,"stimulus":"Stimuli_Rocks480/M_Slate_03.png","response":null,"trial_type":"image-keyboard-response","trial_index":103,"plugin_version":"2.1.0","time_elapsed":496793,"subject_id":"90061","group":"Group1","full_date":"2025-12-06T20:17:57.722Z","date":"2025-12-06","time":"20:17:57"},{"rt":null,"stimulus":"<p style=\"font-size: 50px; margin: 0; text-align: center;\">+</p>","response":null,"trial_type":"html-keyboard-response","trial_index":104,"plugin_version":"2.1.0","time_elapsed":497796,"subject_id":"90061","group":"Group1","full_date":"2025-12-06T20:17:57.722Z","date":"2025-12-06","time":"20:17:57"},{"task":"memory_phase","broad_category":"S","image_png":"S_Shale_01.png","image_id":465,"category_name":"Shale","category":30,"distinct_rating":2.7,"distinct_type":"Bottom","rt":null,"stimulus":"Stimuli_Rocks480/S_Shale_01.png","response":null,"trial_type":"image-keyboard-response","trial_index":105,"plugin_version":"2.1.0","time_elapsed":500299,"subject_id":"90061","group":"Group1","full_date":"2025-12-06T20:17:57.722Z","date":"2025-12-06","time":"20:17:57"},{"rt":2689,"stimulus":"<p style=\"max-width: 760px; margin: auto; font-size: 35px; line-height: 1.5;\">You have completed 1 study phase. Now, we'll show you all the images again 2 more times.<br><br>Press SPACE to continue</p>","response":" ","trial_type":"html-keyboard-response","trial_index":106,"plugin_version":"2.1.0","time_elapsed":502988,"subject_id":"90061","group":"Group1","full_date":"2025-12-06T20:17:57.722Z","date":"2025-12-06","time":"20:17:57"},{"rt":null,"stimulus":"<p style=\"font-size: 50px; margin: 0; text-align: center;\">+</p>","response":null,"trial_type":"html-keyboard-response","trial_index":107,"plugin_version":"2.1.0","time_elapsed":503991,"subject_id":"90061","group":"Group1","full_date":"2025-12-06T20:17:57.722Z","date":"2025-12-06","time":"20:17:57"},{"task":"memory_phase","broad_category":"I","image_png":"I_Rhyolite_14.png","image_id":158,"category_name":"Rhyolite","category":10,"distinct_rating":2.59,"distinct_type":"Bottom","rt":null,"stimulus":"Stimuli_Rocks480/I_Rhyolite_14.png","response":null,"trial_type":"image-keyboard-response","trial_index":108,"plugin_version":"2.1.0","time_elapsed":506495,"subject_id":"90061","group":"Group1","full_date":"2025-12-06T20:17:57.722Z","date":"2025-12-06","time":"20:17:57"},{"rt":null,"stimulus":"<p style=\"font-size: 50px; margin: 0; text-align: center;\">+</p>","response":null,"trial_type":"html-keyboard-response","trial_index":109,"plugin_version":"2.1.0","time_elapsed":507497,"subject_id":"90061","group":"Group1","full_date":"2025-12-06T20:17:57.722Z","date":"2025-12-06","time":"20:17:57"},{"task":"memory_phase","broad_category":"S","image_png":"S_Dolomite_13.png","image_id":397,"category_name":"Dolomite","category":25,"distinct_rating":1.77,"distinct_type":"Bottom","rt":null,"stimulus":"Stimuli_Rocks480/S_Dolomite_13.png","response":null,"trial_type":"image-keyboard-response","trial_index":110,"plugin_version":"2.1.0","time_elapsed":510001,"subject_id":"90061","group":"Group1","full_date":"2025-12-06T20:17:57.722Z","date":"2025-12-06","time":"20:17:57"},{"rt":null,"stimulus":"<p style=\"font-size: 50px; margin: 0; text-align: center;\">+</p>","response":null,"trial_type":"html-keyboard-response","trial_index":111,"plugin_version":"2.1.0","time_elapsed":511003,"subject_id":"90061","group":"Group1","full_date":"2025-12-06T20:17:57.722Z","date":"2025-12-06","time":"20:17:57"},{"task":"memory_phase","broad_category":"M","image_png":"M_Gneiss_13.png","image_id":205,"category_name":"Gneiss","category":13,"distinct_rating":3.26,"distinct_type":"Bottom","rt":null,"stimulus":"Stimuli_Rocks480/M_Gneiss_13.png","response":null,"trial_type":"image-keyboard-response","trial_index":112,"plugin_version":"2.1.0","time_elapsed":513505,"subject_id":"90061","group":"Group1","full_date":"2025-12-06T20:17:57.722Z","date":"2025-12-06","time":"20:17:57"},{"rt":null,"stimulus":"<p style=\"font-size: 50px; margin: 0; text-align: center;\">+</p>","response":null,"trial_type":"html-keyboard-response","trial_index":113,"plugin_version":"2.1.0","time_elapsed":514507,"subject_id":"90061","group":"Group1","full_date":"2025-12-06T20:17:57.722Z","date":"2025-12-06","time":"20:17:57"},{"task":"memory_phase","broad_category":"M","image_png":"M_Phyllite_07.png","image_id":263,"category_name":"Phyllite","category":17,"distinct_rating":2.59,"distinct_type":"Bottom","rt":null,"stimulus":"Stimuli_Rocks480/M_Phyllite_07.png","response":null,"trial_type":"image-keyboard-response","trial_index":114,"plugin_version":"2.1.0","time_elapsed":517010,"subject_id":"90061","group":"Group1","full_date":"2025-12-06T20:17:57.722Z","date":"2025-12-06","time":"20:17:57"},{"rt":null,"stimulus":"<p style=\"font-size: 50px; margin: 0; text-align: center;\">+</p>","response":null,"trial_type":"html-keyboard-response","trial_index":115,"plugin_version":"2.1.0","time_elapsed":518012,"subject_id":"90061","group":"Group1","full_date":"2025-12-06T20:17:57.722Z","date":"2025-12-06","time":"20:17:57"},{"task":"memory_phase","broad_category":"S","image_png":"S_Sandstone_15.png","image_id":463,"category_name":"Sandstone","category":29,"distinct_rating":2,"distinct_type":"Bottom","rt":null,"stimulus":"Stimuli_Rocks480/S_Sandstone_15.png","response":null,"trial_type":"image-keyboard-response","trial_index":116,"plugin_version":"2.1.0","time_elapsed":520516,"subject_id":"90061","group":"Group1","full_date":"2025-12-06T20:17:57.722Z","date":"2025-12-06","time":"20:17:57"},{"rt":null,"stimulus":"<p style=\"font-size: 50px; margin: 0; text-align: center;\">+</p>","response":null,"trial_type":"html-keyboard-response","trial_index":117,"plugin_version":"2.1.0","time_elapsed":521518,"subject_id":"90061","group":"Group1","full_date":"2025-12-06T20:17:57.722Z","date":"2025-12-06","time":"20:17:57"},{"task":"memory_phase","broad_category":"I","image_png":"I_Pumice_08.png","image_id":136,"category_name":"Pumice","category":9,"distinct_rating":3.1,"distinct_type":"Bottom","rt":null,"stimulus":"Stimuli_Rocks480/I_Pumice_08.png","response":null,"trial_type":"image-keyboard-response","trial_index":118,"plugin_version":"2.1.0","time_elapsed":524022,"subject_id":"90061","group":"Group1","full_date":"2025-12-06T20:17:57.722Z","date":"2025-12-06","time":"20:17:57"},{"rt":null,"stimulus":"<p style=\"font-size: 50px; margin: 0; text-align: center;\">+</p>","response":null,"trial_type":"html-keyboard-response","trial_index":119,"plugin_version":"2.1.0","time_elapsed":525024,"subject_id":"90061","group":"Group1","full_date":"2025-12-06T20:17:57.722Z","date":"2025-12-06","time":"20:17:57"},{"task":"memory_phase","broad_category":"I","image_png":"I_Rhyolite_11.png","image_id":155,"category_name":"Rhyolite","category":10,"distinct_rating":1.73,"distinct_type":"Bottom","rt":null,"stimulus":"Stimuli_Rocks480/I_Rhyolite_11.png","response":null,"trial_type":"image-keyboard-response","trial_index":120,"plugin_version":"2.1.0","time_elapsed":527526,"subject_id":"90061","group":"Group1","full_date":"2025-12-06T20:17:57.722Z","date":"2025-12-06","time":"20:17:57"},{"rt":null,"stimulus":"<p style=\"font-size: 50px; margin: 0; text-align: center;\">+</p>","response":null,"trial_type":"html-keyboard-response","trial_index":121,"plugin_version":"2.1.0","time_elapsed":528529,"subject_id":"90061","group":"Group1","full_date":"2025-12-06T20:17:57.722Z","date":"2025-12-06","time":"20:17:57"},{"task":"memory_phase","broad_category":"S","image_png":"S_Shale_12.png","image_id":476,"category_name":"Shale","category":30,"distinct_rating":2.48,"distinct_type":"Bottom","rt":null,"stimulus":"Stimuli_Rocks480/S_Shale_12.png","response":null,"trial_type":"image-keyboard-response","trial_index":122,"plugin_version":"2.1.0","time_elapsed":531032,"subject_id":"90061","group":"Group1","full_date":"2025-12-06T20:17:57.722Z","date":"2025-12-06","time":"20:17:57"},{"rt":null,"stimulus":"<p style=\"font-size: 50px; margin: 0; text-align: center;\">+</p>","response":null,"trial_type":"html-keyboard-response","trial_index":123,"plugin_version":"2.1.0","time_elapsed":532035,"subject_id":"90061","group":"Group1","full_date":"2025-12-06T20:17:57.722Z","date":"2025-12-06","time":"20:17:57"},{"task":"memory_phase","broad_category":"M","image_png":"M_Marble_16.png","image_id":240,"category_name":"Marble","category":15,"distinct_rating":2.57,"distinct_type":"Bottom","rt":null,"stimulus":"Stimuli_Rocks480/M_Marble_16.png","response":null,"trial_type":"image-keyboard-response","trial_index":124,"plugin_version":"2.1.0","time_elapsed":534538,"subject_id":"90061","group":"Group1","full_date":"2025-12-06T20:17:57.722Z","date":"2025-12-06","time":"20:17:57"},{"rt":null,"stimulus":"<p style=\"font-size: 50px; margin: 0; text-align: center;\">+</p>","response":null,"trial_type":"html-keyboard-response","trial_index":125,"plugin_version":"2.1.0","time_elapsed":535540,"subject_id":"90061","group":"Group1","full_date":"2025-12-06T20:17:57.722Z","date":"2025-12-06","time":"20:17:57"},{"task":"memory_phase","broad_category":"I","image_png":"I_Andesite_08.png","image_id":8,"category_name":"Andesite","category":1,"distinct_rating":1.95,"distinct_type":"Bottom","rt":null,"stimulus":"Stimuli_Rocks480/I_Andesite_08.png","response":null,"trial_type":"image-keyboard-response","trial_index":126,"plugin_version":"2.1.0","time_elapsed":538044,"subject_id":"90061","group":"Group1","full_date":"2025-12-06T20:17:57.722Z","date":"2025-12-06","time":"20:17:57"},{"rt":null,"stimulus":"<p style=\"font-size: 50px; margin: 0; text-align: center;\">+</p>","response":null,"trial_type":"html-keyboard-response","trial_index":127,"plugin_version":"2.1.0","time_elapsed":539046,"subject_id":"90061","group":"Group1","full_date":"2025-12-06T20:17:57.722Z","date":"2025-12-06","time":"20:17:57"},{"task":"memory_phase","broad_category":"M","image_png":"M_Quartzite_05.png","image_id":277,"category_name":"Quartzite","category":18,"distinct_rating":2.23,"distinct_type":"Bottom","rt":null,"stimulus":"Stimuli_Rocks480/M_Quartzite_05.png","response":null,"trial_type":"image-keyboard-response","trial_index":128,"plugin_version":"2.1.0","time_elapsed":541549,"subject_id":"90061","group":"Group1","full_date":"2025-12-06T20:17:57.722Z","date":"2025-12-06","time":"20:17:57"},{"rt":null,"stimulus":"<p style=\"font-size: 50px; margin: 0; text-align: center;\">+</p>","response":null,"trial_type":"html-keyboard-response","trial_index":129,"plugin_version":"2.1.0","time_elapsed":542551,"subject_id":"90061","group":"Group1","full_date":"2025-12-06T20:17:57.722Z","date":"2025-12-06","time":"20:17:57"},{"task":"memory_phase","broad_category":"M","image_png":"M_Slate_11.png","image_id":315,"category_name":"Slate","category":20,"distinct_rating":2.75,"distinct_type":"Bottom","rt":null,"stimulus":"Stimuli_Rocks480/M_Slate_11.png","response":null,"trial_type":"image-keyboard-response","trial_index":130,"plugin_version":"2.1.0","time_elapsed":545053,"subject_id":"90061","group":"Group1","full_date":"2025-12-06T20:17:57.722Z","date":"2025-12-06","time":"20:17:57"},{"rt":null,"stimulus":"<p style=\"font-size: 50px; margin: 0; text-align: center;\">+</p>","response":null,"trial_type":"html-keyboard-response","trial_index":131,"plugin_version":"2.1.0","time_elapsed":546056,"subject_id":"90061","group":"Group1","full_date":"2025-12-06T20:17:57.722Z","date":"2025-12-06","time":"20:17:57"},{"task":"memory_phase","broad_category":"I","image_png":"I_Basalt_09.png","image_id":25,"category_name":"Basalt","category":2,"distinct_rating":1.89,"distinct_type":"Bottom","rt":null,"stimulus":"Stimuli_Rocks480/I_Basalt_09.png","response":null,"trial_type":"image-keyboard-response","trial_index":132,"plugin_version":"2.1.0","time_elapsed":548559,"subject_id":"90061","group":"Group1","full_date":"2025-12-06T20:17:57.722Z","date":"2025-12-06","time":"20:17:57"},{"rt":null,"stimulus":"<p style=\"font-size: 50px; margin: 0; text-align: center;\">+</p>","response":null,"trial_type":"html-keyboard-response","trial_index":133,"plugin_version":"2.1.0","time_elapsed":549562,"subject_id":"90061","group":"Group1","full_date":"2025-12-06T20:17:57.722Z","date":"2025-12-06","time":"20:17:57"},{"task":"memory_phase","broad_category":"M","image_png":"M_Slate_03.png","image_id":307,"category_name":"Slate","category":20,"distinct_rating":1.87,"distinct_type":"Bottom","rt":null,"stimulus":"Stimuli_Rocks480/M_Slate_03.png","response":null,"trial_type":"image-keyboard-response","trial_index":134,"plugin_version":"2.1.0","time_elapsed":552065,"subject_id":"90061","group":"Group1","full_date":"2025-12-06T20:17:57.722Z","date":"2025-12-06","time":"20:17:57"},{"rt":null,"stimulus":"<p style=\"font-size: 50px; margin: 0; text-align: center;\">+</p>","response":null,"trial_type":"html-keyboard-response","trial_index":135,"plugin_version":"2.1.0","time_elapsed":553068,"subject_id":"90061","group":"Group1","full_date":"2025-12-06T20:17:57.722Z","date":"2025-12-06","time":"20:17:57"},{"task":"memory_phase","broad_category":"M","image_png":"M_Quartzite_08.png","image_id":280,"category_name":"Quartzite","category":18,"distinct_rating":2.15,"distinct_type":"Bottom","rt":null,"stimulus":"Stimuli_Rocks480/M_Quartzite_08.png","response":null,"trial_type":"image-keyboard-response","trial_index":136,"plugin_version":"2.1.0","time_elapsed":555571,"subject_id":"90061","group":"Group1","full_date":"2025-12-06T20:17:57.722Z","date":"2025-12-06","time":"20:17:57"},{"rt":null,"stimulus":"<p style=\"font-size: 50px; margin: 0; text-align: center;\">+</p>","response":null,"trial_type":"html-keyboard-response","trial_index":137,"plugin_version":"2.1.0","time_elapsed":556573,"subject_id":"90061","group":"Group1","full_date":"2025-12-06T20:17:57.722Z","date":"2025-12-06","time":"20:17:57"},{"task":"memory_phase","broad_category":"M","image_png":"M_Phyllite_10.png","image_id":266,"category_name":"Phyllite","category":17,"distinct_rating":2.6,"distinct_type":"Bottom","rt":null,"stimulus":"Stimuli_Rocks480/M_Phyllite_10.png","response":null,"trial_type":"image-keyboard-response","trial_index":138,"plugin_version":"2.1.0","time_elapsed":559077,"subject_id":"90061","group":"Group1","full_date":"2025-12-06T20:17:57.722Z","date":"2025-12-06","time":"20:17:57"},{"rt":null,"stimulus":"<p style=\"font-size: 50px; margin: 0; text-align: center;\">+</p>","response":null,"trial_type":"html-keyboard-response","trial_index":139,"plugin_version":"2.1.0","time_elapsed":560079,"subject_id":"90061","group":"Group1","full_date":"2025-12-06T20:17:57.722Z","date":"2025-12-06","time":"20:17:57"},{"task":"memory_phase","broad_category":"S","image_png":"S_Breccia_11.png","image_id":347,"category_name":"Breccia","category":22,"distinct_rating":6.7,"distinct_type":"Top","rt":null,"stimulus":"Stimuli_Rocks480/S_Breccia_11.png","response":null,"trial_type":"image-keyboard-response","trial_index":140,"plugin_version":"2.1.0","time_elapsed":562582,"subject_id":"90061","group":"Group1","full_date":"2025-12-06T20:17:57.722Z","date":"2025-12-06","time":"20:17:57"},{"rt":null,"stimulus":"<p style=\"font-size: 50px; margin: 0; text-align: center;\">+</p>","response":null,"trial_type":"html-keyboard-response","trial_index":141,"plugin_version":"2.1.0","time_elapsed":563584,"subject_id":"90061","group":"Group1","full_date":"2025-12-06T20:17:57.722Z","date":"2025-12-06","time":"20:17:57"},{"task":"memory_phase","broad_category":"S","image_png":"S_Dolomite_12.png","image_id":396,"category_name":"Dolomite","category":25,"distinct_rating":1.85,"distinct_type":"Bottom","rt":null,"stimulus":"Stimuli_Rocks480/S_Dolomite_12.png","response":null,"trial_type":"image-keyboard-response","trial_index":142,"plugin_version":"2.1.0","time_elapsed":566086,"subject_id":"90061","group":"Group1","full_date":"2025-12-06T20:17:57.722Z","date":"2025-12-06","time":"20:17:57"},{"rt":null,"stimulus":"<p style=\"font-size: 50px; margin: 0; text-align: center;\">+</p>","response":null,"trial_type":"html-keyboard-response","trial_index":143,"plugin_version":"2.1.0","time_elapsed":567089,"subject_id":"90061","group":"Group1","full_date":"2025-12-06T20:17:57.722Z","date":"2025-12-06","time":"20:17:57"},{"task":"memory_phase","broad_category":"I","image_png":"I_Pegmatite_10.png","image_id":106,"category_name":"Pegmatite","category":7,"distinct_rating":7.66,"distinct_type":"Top","rt":null,"stimulus":"Stimuli_Rocks480/I_Pegmatite_10.png","response":null,"trial_type":"image-keyboard-response","trial_index":144,"plugin_version":"2.1.0","time_elapsed":569592,"subject_id":"90061","group":"Group1","full_date":"2025-12-06T20:17:57.722Z","date":"2025-12-06","time":"20:17:57"},{"rt":null,"stimulus":"<p style=\"font-size: 50px; margin: 0; text-align: center;\">+</p>","response":null,"trial_type":"html-keyboard-response","trial_index":145,"plugin_version":"2.1.0","time_elapsed":570595,"subject_id":"90061","group":"Group1","full_date":"2025-12-06T20:17:57.722Z","date":"2025-12-06","time":"20:17:57"},{"task":"memory_phase","broad_category":"I","image_png":"I_Gabbro_16.png","image_id":64,"category_name":"Gabbro","category":4,"distinct_rating":2.52,"distinct_type":"Bottom","rt":null,"stimulus":"Stimuli_Rocks480/I_Gabbro_16.png","response":null,"trial_type":"image-keyboard-response","trial_index":146,"plugin_version":"2.1.0","time_elapsed":573097,"subject_id":"90061","group":"Group1","full_date":"2025-12-06T20:17:57.722Z","date":"2025-12-06","time":"20:17:57"},{"rt":null,"stimulus":"<p style=\"font-size: 50px; margin: 0; text-align: center;\">+</p>","response":null,"trial_type":"html-keyboard-response","trial_index":147,"plugin_version":"2.1.0","time_elapsed":574099,"subject_id":"90061","group":"Group1","full_date":"2025-12-06T20:17:57.722Z","date":"2025-12-06","time":"20:17:57"},{"task":"memory_phase","broad_category":"S","image_png":"S_Dolomite_14.png","image_id":398,"category_name":"Dolomite","category":25,"distinct_rating":1.43,"distinct_type":"Bottom","rt":null,"stimulus":"Stimuli_Rocks480/S_Dolomite_14.png","response":null,"trial_type":"image-keyboard-response","trial_index":148,"plugin_version":"2.1.0","time_elapsed":576602,"subject_id":"90061","group":"Group1","full_date":"2025-12-06T20:17:57.722Z","date":"2025-12-06","time":"20:17:57"},{"rt":null,"stimulus":"<p style=\"font-size: 50px; margin: 0; text-align: center;\">+</p>","response":null,"trial_type":"html-keyboard-response","trial_index":149,"plugin_version":"2.1.0","time_elapsed":577605,"subject_id":"90061","group":"Group1","full_date":"2025-12-06T20:17:57.722Z","date":"2025-12-06","time":"20:17:57"},{"task":"memory_phase","broad_category":"I","image_png":"I_Andesite_06.png","image_id":6,"category_name":"Andesite","category":1,"distinct_rating":3.17,"distinct_type":"Bottom","rt":null,"stimulus":"Stimuli_Rocks480/I_Andesite_06.png","response":null,"trial_type":"image-keyboard-response","trial_index":150,"plugin_version":"2.1.0","time_elapsed":580106,"subject_id":"90061","group":"Group1","full_date":"2025-12-06T20:17:57.722Z","date":"2025-12-06","time":"20:17:57"},{"rt":null,"stimulus":"<p style=\"font-size: 50px; margin: 0; text-align: center;\">+</p>","response":null,"trial_type":"html-keyboard-response","trial_index":151,"plugin_version":"2.1.0","time_elapsed":581109,"subject_id":"90061","group":"Group1","full_date":"2025-12-06T20:17:57.722Z","date":"2025-12-06","time":"20:17:57"},{"task":"memory_phase","broad_category":"S","image_png":"S_Shale_01.png","image_id":465,"category_name":"Shale","category":30,"distinct_rating":2.7,"distinct_type":"Bottom","rt":null,"stimulus":"Stimuli_Rocks480/S_Shale_01.png","response":null,"trial_type":"image-keyboard-response","trial_index":152,"plugin_version":"2.1.0","time_elapsed":583612,"subject_id":"90061","group":"Group1","full_date":"2025-12-06T20:17:57.722Z","date":"2025-12-06","time":"20:17:57"},{"rt":null,"stimulus":"<p style=\"font-size: 50px; margin: 0; text-align: center;\">+</p>","response":null,"trial_type":"html-keyboard-response","trial_index":153,"plugin_version":"2.1.0","time_elapsed":584615,"subject_id":"90061","group":"Group1","full_date":"2025-12-06T20:17:57.722Z","date":"2025-12-06","time":"20:17:57"},{"task":"memory_phase","broad_category":"I","image_png":"I_Diorite_05.png","image_id":37,"category_name":"Diorite","category":3,"distinct_rating":3.08,"distinct_type":"Bottom","rt":null,"stimulus":"Stimuli_Rocks480/I_Diorite_05.png","response":null,"trial_type":"image-keyboard-response","trial_index":154,"plugin_version":"2.1.0","time_elapsed":587118,"subject_id":"90061","group":"Group1","full_date":"2025-12-06T20:17:57.722Z","date":"2025-12-06","time":"20:17:57"},{"rt":null,"stimulus":"<p style=\"font-size: 50px; margin: 0; text-align: center;\">+</p>","response":null,"trial_type":"html-keyboard-response","trial_index":155,"plugin_version":"2.1.0","time_elapsed":588120,"subject_id":"90061","group":"Group1","full_date":"2025-12-06T20:17:57.722Z","date":"2025-12-06","time":"20:17:57"},{"task":"memory_phase","broad_category":"I","image_png":"I_Pumice_11.png","image_id":139,"category_name":"Pumice","category":9,"distinct_rating":1.74,"distinct_type":"Bottom","rt":null,"stimulus":"Stimuli_Rocks480/I_Pumice_11.png","response":null,"trial_type":"image-keyboard-response","trial_index":156,"plugin_version":"2.1.0","time_elapsed":590623,"subject_id":"90061","group":"Group1","full_date":"2025-12-06T20:17:57.722Z","date":"2025-12-06","time":"20:17:57"},{"rt":56607,"stimulus":"<p style=\"max-width: 760px; margin: auto; font-size: 35px; line-height: 1.5;\">Press SPACE to continue study phase</p>","response":" ","trial_type":"html-keyboard-response","trial_index":157,"plugin_version":"2.1.0","time_elapsed":647231,"subject_id":"90061","group":"Group1","full_date":"2025-12-06T20:17:57.722Z","date":"2025-12-06","time":"20:17:57"},{"rt":null,"stimulus":"<p style=\"font-size: 50px; margin: 0; text-align: center;\">+</p>","response":null,"trial_type":"html-keyboard-response","trial_index":158,"plugin_version":"2.1.0","time_elapsed":648233,"subject_id":"90061","group":"Group1","full_date":"2025-12-06T20:17:57.722Z","date":"2025-12-06","time":"20:17:57"},{"task":"memory_phase","broad_category":"I","image_png":"I_Gabbro_08.png","image_id":56,"category_name":"Gabbro","category":4,"distinct_rating":3.02,"distinct_type":"Bottom","rt":null,"stimulus":"Stimuli_Rocks480/I_Gabbro_08.png","response":null,"trial_type":"image-keyboard-response","trial_index":159,"plugin_version":"2.1.0","time_elapsed":650735,"subject_id":"90061","group":"Group1","full_date":"2025-12-06T20:17:57.722Z","date":"2025-12-06","time":"20:17:57"},{"rt":null,"stimulus":"<p style=\"font-size: 50px; margin: 0; text-align: center;\">+</p>","response":null,"trial_type":"html-keyboard-response","trial_index":160,"plugin_version":"2.1.0","time_elapsed":651738,"subject_id":"90061","group":"Group1","full_date":"2025-12-06T20:17:57.722Z","date":"2025-12-06","time":"20:17:57"},{"task":"memory_phase","broad_category":"M","image_png":"M_Gneiss_05.png","image_id":197,"category_name":"Gneiss","category":13,"distinct_rating":2.97,"distinct_type":"Bottom","rt":null,"stimulus":"Stimuli_Rocks480/M_Gneiss_05.png","response":null,"trial_type":"image-keyboard-response","trial_index":161,"plugin_version":"2.1.0","time_elapsed":654241,"subject_id":"90061","group":"Group1","full_date":"2025-12-06T20:17:57.722Z","date":"2025-12-06","time":"20:17:57"},{"rt":null,"stimulus":"<p style=\"font-size: 50px; margin: 0; text-align: center;\">+</p>","response":null,"trial_type":"html-keyboard-response","trial_index":162,"plugin_version":"2.1.0","time_elapsed":655243,"subject_id":"90061","group":"Group1","full_date":"2025-12-06T20:17:57.722Z","date":"2025-12-06","time":"20:17:57"},{"task":"memory_phase","broad_category":"I","image_png":"I_Pegmatite_16.png","image_id":112,"category_name":"Pegmatite","category":7,"distinct_rating":7.03,"distinct_type":"Top","rt":null,"stimulus":"Stimuli_Rocks480/I_Pegmatite_16.png","response":null,"trial_type":"image-keyboard-response","trial_index":163,"plugin_version":"2.1.0","time_elapsed":657746,"subject_id":"90061","group":"Group1","full_date":"2025-12-06T20:17:57.722Z","date":"2025-12-06","time":"20:17:57"},{"rt":null,"stimulus":"<p style=\"font-size: 50px; margin: 0; text-align: center;\">+</p>","response":null,"trial_type":"html-keyboard-response","trial_index":164,"plugin_version":"2.1.0","time_elapsed":658749,"subject_id":"90061","group":"Group1","full_date":"2025-12-06T20:17:57.722Z","date":"2025-12-06","time":"20:17:57"},{"task":"memory_phase","broad_category":"I","image_png":"I_Diorite_03.png","image_id":35,"category_name":"Diorite","category":3,"distinct_rating":3.14,"distinct_type":"Bottom","rt":null,"stimulus":"Stimuli_Rocks480/I_Diorite_03.png","response":null,"trial_type":"image-keyboard-response","trial_index":165,"plugin_version":"2.1.0","time_elapsed":661252,"subject_id":"90061","group":"Group1","full_date":"2025-12-06T20:17:57.722Z","date":"2025-12-06","time":"20:17:57"},{"rt":null,"stimulus":"<p style=\"font-size: 50px; margin: 0; text-align: center;\">+</p>","response":null,"trial_type":"html-keyboard-response","trial_index":166,"plugin_version":"2.1.0","time_elapsed":662255,"subject_id":"90061","group":"Group1","full_date":"2025-12-06T20:17:57.722Z","date":"2025-12-06","time":"20:17:57"},{"task":"memory_phase","broad_category":"I","image_png":"I_Pumice_12.png","image_id":140,"category_name":"Pumice","category":9,"distinct_rating":2.97,"distinct_type":"Bottom","rt":null,"stimulus":"Stimuli_Rocks480/I_Pumice_12.png","response":null,"trial_type":"image-keyboard-response","trial_index":167,"plugin_version":"2.1.0","time_elapsed":664757,"subject_id":"90061","group":"Group1","full_date":"2025-12-06T20:17:57.722Z","date":"2025-12-06","time":"20:17:57"},{"rt":null,"stimulus":"<p style=\"font-size: 50px; margin: 0; text-align: center;\">+</p>","response":null,"trial_type":"html-keyboard-response","trial_index":168,"plugin_version":"2.1.0","time_elapsed":665760,"subject_id":"90061","group":"Group1","full_date":"2025-12-06T20:17:57.722Z","date":"2025-12-06","time":"20:17:57"},{"task":"memory_phase","broad_category":"I","image_png":"I_Diorite_04.png","image_id":36,"category_name":"Diorite","category":3,"distinct_rating":2.98,"distinct_type":"Bottom","rt":null,"stimulus":"Stimuli_Rocks480/I_Diorite_04.png","response":null,"trial_type":"image-keyboard-response","trial_index":169,"plugin_version":"2.1.0","time_elapsed":668261,"subject_id":"90061","group":"Group1","full_date":"2025-12-06T20:17:57.722Z","date":"2025-12-06","time":"20:17:57"},{"rt":null,"stimulus":"<p style=\"font-size: 50px; margin: 0; text-align: center;\">+</p>","response":null,"trial_type":"html-keyboard-response","trial_index":170,"plugin_version":"2.1.0","time_elapsed":669263,"subject_id":"90061","group":"Group1","full_date":"2025-12-06T20:17:57.722Z","date":"2025-12-06","time":"20:17:57"},{"task":"memory_phase","broad_category":"S","image_png":"S_Sandstone_03.png","image_id":451,"category_name":"Sandstone","category":29,"distinct_rating":1.86,"distinct_type":"Bottom","rt":null,"stimulus":"Stimuli_Rocks480/S_Sandstone_03.png","response":null,"trial_type":"image-keyboard-response","trial_index":171,"plugin_version":"2.1.0","time_elapsed":671765,"subject_id":"90061","group":"Group1","full_date":"2025-12-06T20:17:57.722Z","date":"2025-12-06","time":"20:17:57"},{"rt":null,"stimulus":"<p style=\"font-size: 50px; margin: 0; text-align: center;\">+</p>","response":null,"trial_type":"html-keyboard-response","trial_index":172,"plugin_version":"2.1.0","time_elapsed":672767,"subject_id":"90061","group":"Group1","full_date":"2025-12-06T20:17:57.722Z","date":"2025-12-06","time":"20:17:57"},{"task":"memory_phase","broad_category":"M","image_png":"M_Gneiss_06.png","image_id":198,"category_name":"Gneiss","category":13,"distinct_rating":2.65,"distinct_type":"Bottom","rt":null,"stimulus":"Stimuli_Rocks480/M_Gneiss_06.png","response":null,"trial_type":"image-keyboard-response","trial_index":173,"plugin_version":"2.1.0","time_elapsed":675271,"subject_id":"90061","group":"Group1","full_date":"2025-12-06T20:17:57.722Z","date":"2025-12-06","time":"20:17:57"},{"rt":null,"stimulus":"<p style=\"font-size: 50px; margin: 0; text-align: center;\">+</p>","response":null,"trial_type":"html-keyboard-response","trial_index":174,"plugin_version":"2.1.0","time_elapsed":676273,"subject_id":"90061","group":"Group1","full_date":"2025-12-06T20:17:57.722Z","date":"2025-12-06","time":"20:17:57"},{"task":"memory_phase","broad_category":"M","image_png":"M_Quartzite_13.png","image_id":285,"category_name":"Quartzite","category":18,"distinct_rating":2.27,"distinct_type":"Bottom","rt":null,"stimulus":"Stimuli_Rocks480/M_Quartzite_13.png","response":null,"trial_type":"image-keyboard-response","trial_index":175,"plugin_version":"2.1.0","time_elapsed":678775,"subject_id":"90061","group":"Group1","full_date":"2025-12-06T20:17:57.722Z","date":"2025-12-06","time":"20:17:57"},{"rt":null,"stimulus":"<p style=\"font-size: 50px; margin: 0; text-align: center;\">+</p>","response":null,"trial_type":"html-keyboard-response","trial_index":176,"plugin_version":"2.1.0","time_elapsed":679777,"subject_id":"90061","group":"Group1","full_date":"2025-12-06T20:17:57.722Z","date":"2025-12-06","time":"20:17:57"},{"task":"memory_phase","broad_category":"S","image_png":"S_Sandstone_16.png","image_id":464,"category_name":"Sandstone","category":29,"distinct_rating":1.93,"distinct_type":"Bottom","rt":null,"stimulus":"Stimuli_Rocks480/S_Sandstone_16.png","response":null,"trial_type":"image-keyboard-response","trial_index":177,"plugin_version":"2.1.0","time_elapsed":682280,"subject_id":"90061","group":"Group1","full_date":"2025-12-06T20:17:57.722Z","date":"2025-12-06","time":"20:17:57"},{"rt":null,"stimulus":"<p style=\"font-size: 50px; margin: 0; text-align: center;\">+</p>","response":null,"trial_type":"html-keyboard-response","trial_index":178,"plugin_version":"2.1.0","time_elapsed":683282,"subject_id":"90061","group":"Group1","full_date":"2025-12-06T20:17:57.722Z","date":"2025-12-06","time":"20:17:57"},{"task":"memory_phase","broad_category":"I","image_png":"I_Rhyolite_16.png","image_id":160,"category_name":"Rhyolite","category":10,"distinct_rating":2.19,"distinct_type":"Bottom","rt":null,"stimulus":"Stimuli_Rocks480/I_Rhyolite_16.png","response":null,"trial_type":"image-keyboard-response","trial_index":179,"plugin_version":"2.1.0","time_elapsed":685785,"subject_id":"90061","group":"Group1","full_date":"2025-12-06T20:17:57.722Z","date":"2025-12-06","time":"20:17:57"},{"rt":null,"stimulus":"<p style=\"font-size: 50px; margin: 0; text-align: center;\">+</p>","response":null,"trial_type":"html-keyboard-response","trial_index":180,"plugin_version":"2.1.0","time_elapsed":686788,"subject_id":"90061","group":"Group1","full_date":"2025-12-06T20:17:57.722Z","date":"2025-12-06","time":"20:17:57"},{"task":"memory_phase","broad_category":"S","image_png":"S_Chert_10.png","image_id":362,"category_name":"Chert","category":23,"distinct_rating":7.17,"distinct_type":"Top","rt":null,"stimulus":"Stimuli_Rocks480/S_Chert_10.png","response":null,"trial_type":"image-keyboard-response","trial_index":181,"plugin_version":"2.1.0","time_elapsed":689291,"subject_id":"90061","group":"Group1","full_date":"2025-12-06T20:17:57.722Z","date":"2025-12-06","time":"20:17:57"},{"rt":null,"stimulus":"<p style=\"font-size: 50px; margin: 0; text-align: center;\">+</p>","response":null,"trial_type":"html-keyboard-response","trial_index":182,"plugin_version":"2.1.0","time_elapsed":690293,"subject_id":"90061","group":"Group1","full_date":"2025-12-06T20:17:57.722Z","date":"2025-12-06","time":"20:17:57"},{"task":"memory_phase","broad_category":"I","image_png":"I_Basalt_01.png","image_id":17,"category_name":"Basalt","category":2,"distinct_rating":1.92,"distinct_type":"Bottom","rt":null,"stimulus":"Stimuli_Rocks480/I_Basalt_01.png","response":null,"trial_type":"image-keyboard-response","trial_index":183,"plugin_version":"2.1.0","time_elapsed":692796,"subject_id":"90061","group":"Group1","full_date":"2025-12-06T20:17:57.722Z","date":"2025-12-06","time":"20:17:57"},{"rt":null,"stimulus":"<p style=\"font-size: 50px; margin: 0; text-align: center;\">+</p>","response":null,"trial_type":"html-keyboard-response","trial_index":184,"plugin_version":"2.1.0","time_elapsed":693798,"subject_id":"90061","group":"Group1","full_date":"2025-12-06T20:17:57.722Z","date":"2025-12-06","time":"20:17:57"},{"task":"memory_phase","broad_category":"M","image_png":"M_Marble_06.png","image_id":230,"category_name":"Marble","category":15,"distinct_rating":3.4,"distinct_type":"Bottom","rt":null,"stimulus":"Stimuli_Rocks480/M_Marble_06.png","response":null,"trial_type":"image-keyboard-response","trial_index":185,"plugin_version":"2.1.0","time_elapsed":696301,"subject_id":"90061","group":"Group1","full_date":"2025-12-06T20:17:57.722Z","date":"2025-12-06","time":"20:17:57"},{"rt":null,"stimulus":"<p style=\"font-size: 50px; margin: 0; text-align: center;\">+</p>","response":null,"trial_type":"html-keyboard-response","trial_index":186,"plugin_version":"2.1.0","time_elapsed":697304,"subject_id":"90061","group":"Group1","full_date":"2025-12-06T20:17:57.722Z","date":"2025-12-06","time":"20:17:57"},{"task":"memory_phase","broad_category":"I","image_png":"I_Obsidian_05.png","image_id":85,"category_name":"Obsidian","category":6,"distinct_rating":7.32,"distinct_type":"Top","rt":null,"stimulus":"Stimuli_Rocks480/I_Obsidian_05.png","response":null,"trial_type":"image-keyboard-response","trial_index":187,"plugin_version":"2.1.0","time_elapsed":699806,"subject_id":"90061","group":"Group1","full_date":"2025-12-06T20:17:57.722Z","date":"2025-12-06","time":"20:17:57"},{"rt":null,"stimulus":"<p style=\"font-size: 50px; margin: 0; text-align: center;\">+</p>","response":null,"trial_type":"html-keyboard-response","trial_index":188,"plugin_version":"2.1.0","time_elapsed":700809,"subject_id":"90061","group":"Group1","full_date":"2025-12-06T20:17:57.722Z","date":"2025-12-06","time":"20:17:57"},{"task":"memory_phase","broad_category":"M","image_png":"M_Phyllite_03.png","image_id":259,"category_name":"Phyllite","category":17,"distinct_rating":2.5,"distinct_type":"Bottom","rt":null,"stimulus":"Stimuli_Rocks480/M_Phyllite_03.png","response":null,"trial_type":"image-keyboard-response","trial_index":189,"plugin_version":"2.1.0","time_elapsed":703312,"subject_id":"90061","group":"Group1","full_date":"2025-12-06T20:17:57.722Z","date":"2025-12-06","time":"20:17:57"},{"rt":null,"stimulus":"<p style=\"font-size: 50px; margin: 0; text-align: center;\">+</p>","response":null,"trial_type":"html-keyboard-response","trial_index":190,"plugin_version":"2.1.0","time_elapsed":704314,"subject_id":"90061","group":"Group1","full_date":"2025-12-06T20:17:57.722Z","date":"2025-12-06","time":"20:17:57"},{"task":"memory_phase","broad_category":"I","image_png":"I_Gabbro_11.png","image_id":59,"category_name":"Gabbro","category":4,"distinct_rating":1.99,"distinct_type":"Bottom","rt":null,"stimulus":"Stimuli_Rocks480/I_Gabbro_11.png","response":null,"trial_type":"image-keyboard-response","trial_index":191,"plugin_version":"2.1.0","time_elapsed":706817,"subject_id":"90061","group":"Group1","full_date":"2025-12-06T20:17:57.722Z","date":"2025-12-06","time":"20:17:57"},{"rt":null,"stimulus":"<p style=\"font-size: 50px; margin: 0; text-align: center;\">+</p>","response":null,"trial_type":"html-keyboard-response","trial_index":192,"plugin_version":"2.1.0","time_elapsed":707820,"subject_id":"90061","group":"Group1","full_date":"2025-12-06T20:17:57.722Z","date":"2025-12-06","time":"20:17:57"},{"task":"memory_phase","broad_category":"M","image_png":"M_Slate_15.png","image_id":319,"category_name":"Slate","category":20,"distinct_rating":2.13,"distinct_type":"Bottom","rt":null,"stimulus":"Stimuli_Rocks480/M_Slate_15.png","response":null,"trial_type":"image-keyboard-response","trial_index":193,"plugin_version":"2.1.0","time_elapsed":710323,"subject_id":"90061","group":"Group1","full_date":"2025-12-06T20:17:57.722Z","date":"2025-12-06","time":"20:17:57"},{"rt":null,"stimulus":"<p style=\"font-size: 50px; margin: 0; text-align: center;\">+</p>","response":null,"trial_type":"html-keyboard-response","trial_index":194,"plugin_version":"2.1.0","time_elapsed":711325,"subject_id":"90061","group":"Group1","full_date":"2025-12-06T20:17:57.722Z","date":"2025-12-06","time":"20:17:57"},{"task":"memory_phase","broad_category":"S","image_png":"S_Rock Salt_01.png","image_id":433,"category_name":"Rock Salt","category":28,"distinct_rating":7.18,"distinct_type":"Top","rt":null,"stimulus":"Stimuli_Rocks480/S_Rock Salt_01.png","response":null,"trial_type":"image-keyboard-response","trial_index":195,"plugin_version":"2.1.0","time_elapsed":713828,"subject_id":"90061","group":"Group1","full_date":"2025-12-06T20:17:57.722Z","date":"2025-12-06","time":"20:17:57"},{"rt":null,"stimulus":"<p style=\"font-size: 50px; margin: 0; text-align: center;\">+</p>","response":null,"trial_type":"html-keyboard-response","trial_index":196,"plugin_version":"2.1.0","time_elapsed":714831,"subject_id":"90061","group":"Group1","full_date":"2025-12-06T20:17:57.722Z","date":"2025-12-06","time":"20:17:57"},{"task":"memory_phase","broad_category":"I","image_png":"I_Andesite_10.png","image_id":10,"category_name":"Andesite","category":1,"distinct_rating":3.15,"distinct_type":"Bottom","rt":null,"stimulus":"Stimuli_Rocks480/I_Andesite_10.png","response":null,"trial_type":"image-keyboard-response","trial_index":197,"plugin_version":"2.1.0","time_elapsed":717334,"subject_id":"90061","group":"Group1","full_date":"2025-12-06T20:17:57.722Z","date":"2025-12-06","time":"20:17:57"},{"rt":null,"stimulus":"<p style=\"font-size: 50px; margin: 0; text-align: center;\">+</p>","response":null,"trial_type":"html-keyboard-response","trial_index":198,"plugin_version":"2.1.0","time_elapsed":718337,"subject_id":"90061","group":"Group1","full_date":"2025-12-06T20:17:57.722Z","date":"2025-12-06","time":"20:17:57"},{"task":"memory_phase","broad_category":"M","image_png":"M_Marble_04.png","image_id":228,"category_name":"Marble","category":15,"distinct_rating":3.15,"distinct_type":"Bottom","rt":null,"stimulus":"Stimuli_Rocks480/M_Marble_04.png","response":null,"trial_type":"image-keyboard-response","trial_index":199,"plugin_version":"2.1.0","time_elapsed":720839,"subject_id":"90061","group":"Group1","full_date":"2025-12-06T20:17:57.722Z","date":"2025-12-06","time":"20:17:57"},{"rt":null,"stimulus":"<p style=\"font-size: 50px; margin: 0; text-align: center;\">+</p>","response":null,"trial_type":"html-keyboard-response","trial_index":200,"plugin_version":"2.1.0","time_elapsed":721842,"subject_id":"90061","group":"Group1","full_date":"2025-12-06T20:17:57.722Z","date":"2025-12-06","time":"20:17:57"},{"task":"memory_phase","broad_category":"S","image_png":"S_Conglomerate_05.png","image_id":373,"category_name":"Conglomerate","category":24,"distinct_rating":7.32,"distinct_type":"Top","rt":null,"stimulus":"Stimuli_Rocks480/S_Conglomerate_05.png","response":null,"trial_type":"image-keyboard-response","trial_index":201,"plugin_version":"2.1.0","time_elapsed":724345,"subject_id":"90061","group":"Group1","full_date":"2025-12-06T20:17:57.722Z","date":"2025-12-06","time":"20:17:57"},{"rt":null,"stimulus":"<p style=\"font-size: 50px; margin: 0; text-align: center;\">+</p>","response":null,"trial_type":"html-keyboard-response","trial_index":202,"plugin_version":"2.1.0","time_elapsed":725347,"subject_id":"90061","group":"Group1","full_date":"2025-12-06T20:17:57.722Z","date":"2025-12-06","time":"20:17:57"},{"task":"memory_phase","broad_category":"S","image_png":"S_Rock Gypsum_04.png","image_id":420,"category_name":"Rock Gypsum","category":27,"distinct_rating":7.61,"distinct_type":"Top","rt":null,"stimulus":"Stimuli_Rocks480/S_Rock Gypsum_04.png","response":null,"trial_type":"image-keyboard-response","trial_index":203,"plugin_version":"2.1.0","time_elapsed":727850,"subject_id":"90061","group":"Group1","full_date":"2025-12-06T20:17:57.722Z","date":"2025-12-06","time":"20:17:57"},{"rt":null,"stimulus":"<p style=\"font-size: 50px; margin: 0; text-align: center;\">+</p>","response":null,"trial_type":"html-keyboard-response","trial_index":204,"plugin_version":"2.1.0","time_elapsed":728852,"subject_id":"90061","group":"Group1","full_date":"2025-12-06T20:17:57.722Z","date":"2025-12-06","time":"20:17:57"},{"task":"memory_phase","broad_category":"S","image_png":"S_Shale_08.png","image_id":472,"category_name":"Shale","category":30,"distinct_rating":2.55,"distinct_type":"Bottom","rt":null,"stimulus":"Stimuli_Rocks480/S_Shale_08.png","response":null,"trial_type":"image-keyboard-response","trial_index":205,"plugin_version":"2.1.0","time_elapsed":731354,"subject_id":"90061","group":"Group1","full_date":"2025-12-06T20:17:57.722Z","date":"2025-12-06","time":"20:17:57"},{"rt":null,"stimulus":"<p style=\"font-size: 50px; margin: 0; text-align: center;\">+</p>","response":null,"trial_type":"html-keyboard-response","trial_index":206,"plugin_version":"2.1.0","time_elapsed":732357,"subject_id":"90061","group":"Group1","full_date":"2025-12-06T20:17:57.722Z","date":"2025-12-06","time":"20:17:57"},{"task":"memory_phase","broad_category":"I","image_png":"I_Basalt_02.png","image_id":18,"category_name":"Basalt","category":2,"distinct_rating":1.84,"distinct_type":"Bottom","rt":null,"stimulus":"Stimuli_Rocks480/I_Basalt_02.png","response":null,"trial_type":"image-keyboard-response","trial_index":207,"plugin_version":"2.1.0","time_elapsed":734860,"subject_id":"90061","group":"Group1","full_date":"2025-12-06T20:17:57.722Z","date":"2025-12-06","time":"20:17:57"},{"rt":3865,"stimulus":"<p style=\"max-width: 760px; margin: auto; font-size: 35px; line-height: 1.5;\">You have completed 2 study phases. Now, we'll show you all the images again 1 more time.<br><br>Press SPACE to continue</p>","response":" ","trial_type":"html-keyboard-response","trial_index":208,"plugin_version":"2.1.0","time_elapsed":738726,"subject_id":"90061","group":"Group1","full_date":"2025-12-06T20:17:57.722Z","date":"2025-12-06","time":"20:17:57"},{"rt":null,"stimulus":"<p style=\"font-size: 50px; margin: 0; text-align: center;\">+</p>","response":null,"trial_type":"html-keyboard-response","trial_index":209,"plugin_version":"2.1.0","time_elapsed":739729,"subject_id":"90061","group":"Group1","full_date":"2025-12-06T20:17:57.722Z","date":"2025-12-06","time":"20:17:57"},{"task":"memory_phase","broad_category":"I","image_png":"I_Basalt_01.png","image_id":17,"category_name":"Basalt","category":2,"distinct_rating":1.92,"distinct_type":"Bottom","rt":null,"stimulus":"Stimuli_Rocks480/I_Basalt_01.png","response":null,"trial_type":"image-keyboard-response","trial_index":210,"plugin_version":"2.1.0","time_elapsed":742232,"subject_id":"90061","group":"Group1","full_date":"2025-12-06T20:17:57.722Z","date":"2025-12-06","time":"20:17:57"},{"rt":null,"stimulus":"<p style=\"font-size: 50px; margin: 0; text-align: center;\">+</p>","response":null,"trial_type":"html-keyboard-response","trial_index":211,"plugin_version":"2.1.0","time_elapsed":743235,"subject_id":"90061","group":"Group1","full_date":"2025-12-06T20:17:57.722Z","date":"2025-12-06","time":"20:17:57"},{"task":"memory_phase","broad_category":"I","image_png":"I_Pegmatite_16.png","image_id":112,"category_name":"Pegmatite","category":7,"distinct_rating":7.03,"distinct_type":"Top","rt":null,"stimulus":"Stimuli_Rocks480/I_Pegmatite_16.png","response":null,"trial_type":"image-keyboard-response","trial_index":212,"plugin_version":"2.1.0","time_elapsed":745738,"subject_id":"90061","group":"Group1","full_date":"2025-12-06T20:17:57.722Z","date":"2025-12-06","time":"20:17:57"},{"rt":null,"stimulus":"<p style=\"font-size: 50px; margin: 0; text-align: center;\">+</p>","response":null,"trial_type":"html-keyboard-response","trial_index":213,"plugin_version":"2.1.0","time_elapsed":746740,"subject_id":"90061","group":"Group1","full_date":"2025-12-06T20:17:57.722Z","date":"2025-12-06","time":"20:17:57"},{"task":"memory_phase","broad_category":"S","image_png":"S_Chert_10.png","image_id":362,"category_name":"Chert","category":23,"distinct_rating":7.17,"distinct_type":"Top","rt":null,"stimulus":"Stimuli_Rocks480/S_Chert_10.png","response":null,"trial_type":"image-keyboard-response","trial_index":214,"plugin_version":"2.1.0","time_elapsed":749243,"subject_id":"90061","group":"Group1","full_date":"2025-12-06T20:17:57.722Z","date":"2025-12-06","time":"20:17:57"},{"rt":null,"stimulus":"<p style=\"font-size: 50px; margin: 0; text-align: center;\">+</p>","response":null,"trial_type":"html-keyboard-response","trial_index":215,"plugin_version":"2.1.0","time_elapsed":750246,"subject_id":"90061","group":"Group1","full_date":"2025-12-06T20:17:57.722Z","date":"2025-12-06","time":"20:17:57"},{"task":"memory_phase","broad_category":"M","image_png":"M_Marble_04.png","image_id":228,"category_name":"Marble","category":15,"distinct_rating":3.15,"distinct_type":"Bottom","rt":null,"stimulus":"Stimuli_Rocks480/M_Marble_04.png","response":null,"trial_type":"image-keyboard-response","trial_index":216,"plugin_version":"2.1.0","time_elapsed":752749,"subject_id":"90061","group":"Group1","full_date":"2025-12-06T20:17:57.722Z","date":"2025-12-06","time":"20:17:57"},{"rt":null,"stimulus":"<p style=\"font-size: 50px; margin: 0; text-align: center;\">+</p>","response":null,"trial_type":"html-keyboard-response","trial_index":217,"plugin_version":"2.1.0","time_elapsed":753751,"subject_id":"90061","group":"Group1","full_date":"2025-12-06T20:17:57.722Z","date":"2025-12-06","time":"20:17:57"},{"task":"memory_phase","broad_category":"M","image_png":"M_Marble_16.png","image_id":240,"category_name":"Marble","category":15,"distinct_rating":2.57,"distinct_type":"Bottom","rt":null,"stimulus":"Stimuli_Rocks480/M_Marble_16.png","response":null,"trial_type":"image-keyboard-response","trial_index":218,"plugin_version":"2.1.0","time_elapsed":756254,"subject_id":"90061","group":"Group1","full_date":"2025-12-06T20:17:57.722Z","date":"2025-12-06","time":"20:17:57"},{"rt":null,"stimulus":"<p style=\"font-size: 50px; margin: 0; text-align: center;\">+</p>","response":null,"trial_type":"html-keyboard-response","trial_index":219,"plugin_version":"2.1.0","time_elapsed":757257,"subject_id":"90061","group":"Group1","full_date":"2025-12-06T20:17:57.722Z","date":"2025-12-06","time":"20:17:57"},{"task":"memory_phase","broad_category":"I","image_png":"I_Pumice_11.png","image_id":139,"category_name":"Pumice","category":9,"distinct_rating":1.74,"distinct_type":"Bottom","rt":null,"stimulus":"Stimuli_Rocks480/I_Pumice_11.png","response":null,"trial_type":"image-keyboard-response","trial_index":220,"plugin_version":"2.1.0","time_elapsed":759759,"subject_id":"90061","group":"Group1","full_date":"2025-12-06T20:17:57.722Z","date":"2025-12-06","time":"20:17:57"},{"rt":null,"stimulus":"<p style=\"font-size: 50px; margin: 0; text-align: center;\">+</p>","response":null,"trial_type":"html-keyboard-response","trial_index":221,"plugin_version":"2.1.0","time_elapsed":760762,"subject_id":"90061","group":"Group1","full_date":"2025-12-06T20:17:57.722Z","date":"2025-12-06","time":"20:17:57"},{"task":"memory_phase","broad_category":"M","image_png":"M_Quartzite_05.png","image_id":277,"category_name":"Quartzite","category":18,"distinct_rating":2.23,"distinct_type":"Bottom","rt":null,"stimulus":"Stimuli_Rocks480/M_Quartzite_05.png","response":null,"trial_type":"image-keyboard-response","trial_index":222,"plugin_version":"2.1.0","time_elapsed":763265,"subject_id":"90061","group":"Group1","full_date":"2025-12-06T20:17:57.722Z","date":"2025-12-06","time":"20:17:57"},{"rt":null,"stimulus":"<p style=\"font-size: 50px; margin: 0; text-align: center;\">+</p>","response":null,"trial_type":"html-keyboard-response","trial_index":223,"plugin_version":"2.1.0","time_elapsed":764268,"subject_id":"90061","group":"Group1","full_date":"2025-12-06T20:17:57.722Z","date":"2025-12-06","time":"20:17:57"},{"task":"memory_phase","broad_category":"S","image_png":"S_Dolomite_13.png","image_id":397,"category_name":"Dolomite","category":25,"distinct_rating":1.77,"distinct_type":"Bottom","rt":null,"stimulus":"Stimuli_Rocks480/S_Dolomite_13.png","response":null,"trial_type":"image-keyboard-response","trial_index":224,"plugin_version":"2.1.0","time_elapsed":766771,"subject_id":"90061","group":"Group1","full_date":"2025-12-06T20:17:57.722Z","date":"2025-12-06","time":"20:17:57"},{"rt":null,"stimulus":"<p style=\"font-size: 50px; margin: 0; text-align: center;\">+</p>","response":null,"trial_type":"html-keyboard-response","trial_index":225,"plugin_version":"2.1.0","time_elapsed":767773,"subject_id":"90061","group":"Group1","full_date":"2025-12-06T20:17:57.722Z","date":"2025-12-06","time":"20:17:57"},{"task":"memory_phase","broad_category":"S","image_png":"S_Dolomite_12.png","image_id":396,"category_name":"Dolomite","category":25,"distinct_rating":1.85,"distinct_type":"Bottom","rt":null,"stimulus":"Stimuli_Rocks480/S_Dolomite_12.png","response":null,"trial_type":"image-keyboard-response","trial_index":226,"plugin_version":"2.1.0","time_elapsed":770276,"subject_id":"90061","group":"Group1","full_date":"2025-12-06T20:17:57.722Z","date":"2025-12-06","time":"20:17:57"},{"rt":null,"stimulus":"<p style=\"font-size: 50px; margin: 0; text-align: center;\">+</p>","response":null,"trial_type":"html-keyboard-response","trial_index":227,"plugin_version":"2.1.0","time_elapsed":771279,"subject_id":"90061","group":"Group1","full_date":"2025-12-06T20:17:57.722Z","date":"2025-12-06","time":"20:17:57"},{"task":"memory_phase","broad_category":"S","image_png":"S_Conglomerate_05.png","image_id":373,"category_name":"Conglomerate","category":24,"distinct_rating":7.32,"distinct_type":"Top","rt":null,"stimulus":"Stimuli_Rocks480/S_Conglomerate_05.png","response":null,"trial_type":"image-keyboard-response","trial_index":228,"plugin_version":"2.1.0","time_elapsed":773782,"subject_id":"90061","group":"Group1","full_date":"2025-12-06T20:17:57.722Z","date":"2025-12-06","time":"20:17:57"},{"rt":null,"stimulus":"<p style=\"font-size: 50px; margin: 0; text-align: center;\">+</p>","response":null,"trial_type":"html-keyboard-response","trial_index":229,"plugin_version":"2.1.0","time_elapsed":774785,"subject_id":"90061","group":"Group1","full_date":"2025-12-06T20:17:57.722Z","date":"2025-12-06","time":"20:17:57"},{"task":"memory_phase","broad_category":"S","image_png":"S_Shale_12.png","image_id":476,"category_name":"Shale","category":30,"distinct_rating":2.48,"distinct_type":"Bottom","rt":null,"stimulus":"Stimuli_Rocks480/S_Shale_12.png","response":null,"trial_type":"image-keyboard-response","trial_index":230,"plugin_version":"2.1.0","time_elapsed":777287,"subject_id":"90061","group":"Group1","full_date":"2025-12-06T20:17:57.722Z","date":"2025-12-06","time":"20:17:57"},{"rt":null,"stimulus":"<p style=\"font-size: 50px; margin: 0; text-align: center;\">+</p>","response":null,"trial_type":"html-keyboard-response","trial_index":231,"plugin_version":"2.1.0","time_elapsed":778289,"subject_id":"90061","group":"Group1","full_date":"2025-12-06T20:17:57.722Z","date":"2025-12-06","time":"20:17:57"},{"task":"memory_phase","broad_category":"M","image_png":"M_Slate_03.png","image_id":307,"category_name":"Slate","category":20,"distinct_rating":1.87,"distinct_type":"Bottom","rt":null,"stimulus":"Stimuli_Rocks480/M_Slate_03.png","response":null,"trial_type":"image-keyboard-response","trial_index":232,"plugin_version":"2.1.0","time_elapsed":780792,"subject_id":"90061","group":"Group1","full_date":"2025-12-06T20:17:57.722Z","date":"2025-12-06","time":"20:17:57"},{"rt":null,"stimulus":"<p style=\"font-size: 50px; margin: 0; text-align: center;\">+</p>","response":null,"trial_type":"html-keyboard-response","trial_index":233,"plugin_version":"2.1.0","time_elapsed":781794,"subject_id":"90061","group":"Group1","full_date":"2025-12-06T20:17:57.722Z","date":"2025-12-06","time":"20:17:57"},{"task":"memory_phase","broad_category":"S","image_png":"S_Sandstone_03.png","image_id":451,"category_name":"Sandstone","category":29,"distinct_rating":1.86,"distinct_type":"Bottom","rt":null,"stimulus":"Stimuli_Rocks480/S_Sandstone_03.png","response":null,"trial_type":"image-keyboard-response","trial_index":234,"plugin_version":"2.1.0","time_elapsed":784297,"subject_id":"90061","group":"Group1","full_date":"2025-12-06T20:17:57.722Z","date":"2025-12-06","time":"20:17:57"},{"rt":null,"stimulus":"<p style=\"font-size: 50px; margin: 0; text-align: center;\">+</p>","response":null,"trial_type":"html-keyboard-response","trial_index":235,"plugin_version":"2.1.0","time_elapsed":785299,"subject_id":"90061","group":"Group1","full_date":"2025-12-06T20:17:57.722Z","date":"2025-12-06","time":"20:17:57"},{"task":"memory_phase","broad_category":"I","image_png":"I_Pegmatite_10.png","image_id":106,"category_name":"Pegmatite","category":7,"distinct_rating":7.66,"distinct_type":"Top","rt":null,"stimulus":"Stimuli_Rocks480/I_Pegmatite_10.png","response":null,"trial_type":"image-keyboard-response","trial_index":236,"plugin_version":"2.1.0","time_elapsed":787802,"subject_id":"90061","group":"Group1","full_date":"2025-12-06T20:17:57.722Z","date":"2025-12-06","time":"20:17:57"},{"rt":null,"stimulus":"<p style=\"font-size: 50px; margin: 0; text-align: center;\">+</p>","response":null,"trial_type":"html-keyboard-response","trial_index":237,"plugin_version":"2.1.0","time_elapsed":788805,"subject_id":"90061","group":"Group1","full_date":"2025-12-06T20:17:57.722Z","date":"2025-12-06","time":"20:17:57"},{"task":"memory_phase","broad_category":"I","image_png":"I_Gabbro_08.png","image_id":56,"category_name":"Gabbro","category":4,"distinct_rating":3.02,"distinct_type":"Bottom","rt":null,"stimulus":"Stimuli_Rocks480/I_Gabbro_08.png","response":null,"trial_type":"image-keyboard-response","trial_index":238,"plugin_version":"2.1.0","time_elapsed":791308,"subject_id":"90061","group":"Group1","full_date":"2025-12-06T20:17:57.722Z","date":"2025-12-06","time":"20:17:57"},{"rt":null,"stimulus":"<p style=\"font-size: 50px; margin: 0; text-align: center;\">+</p>","response":null,"trial_type":"html-keyboard-response","trial_index":239,"plugin_version":"2.1.0","time_elapsed":792311,"subject_id":"90061","group":"Group1","full_date":"2025-12-06T20:17:57.722Z","date":"2025-12-06","time":"20:17:57"},{"task":"memory_phase","broad_category":"M","image_png":"M_Quartzite_08.png","image_id":280,"category_name":"Quartzite","category":18,"distinct_rating":2.15,"distinct_type":"Bottom","rt":null,"stimulus":"Stimuli_Rocks480/M_Quartzite_08.png","response":null,"trial_type":"image-keyboard-response","trial_index":240,"plugin_version":"2.1.0","time_elapsed":794814,"subject_id":"90061","group":"Group1","full_date":"2025-12-06T20:17:57.722Z","date":"2025-12-06","time":"20:17:57"},{"rt":null,"stimulus":"<p style=\"font-size: 50px; margin: 0; text-align: center;\">+</p>","response":null,"trial_type":"html-keyboard-response","trial_index":241,"plugin_version":"2.1.0","time_elapsed":795816,"subject_id":"90061","group":"Group1","full_date":"2025-12-06T20:17:57.722Z","date":"2025-12-06","time":"20:17:57"},{"task":"memory_phase","broad_category":"I","image_png":"I_Gabbro_16.png","image_id":64,"category_name":"Gabbro","category":4,"distinct_rating":2.52,"distinct_type":"Bottom","rt":null,"stimulus":"Stimuli_Rocks480/I_Gabbro_16.png","response":null,"trial_type":"image-keyboard-response","trial_index":242,"plugin_version":"2.1.0","time_elapsed":798319,"subject_id":"90061","group":"Group1","full_date":"2025-12-06T20:17:57.722Z","date":"2025-12-06","time":"20:17:57"},{"rt":null,"stimulus":"<p style=\"font-size: 50px; margin: 0; text-align: center;\">+</p>","response":null,"trial_type":"html-keyboard-response","trial_index":243,"plugin_version":"2.1.0","time_elapsed":799321,"subject_id":"90061","group":"Group1","full_date":"2025-12-06T20:17:57.722Z","date":"2025-12-06","time":"20:17:57"},{"task":"memory_phase","broad_category":"S","image_png":"S_Dolomite_14.png","image_id":398,"category_name":"Dolomite","category":25,"distinct_rating":1.43,"distinct_type":"Bottom","rt":null,"stimulus":"Stimuli_Rocks480/S_Dolomite_14.png","response":null,"trial_type":"image-keyboard-response","trial_index":244,"plugin_version":"2.1.0","time_elapsed":801824,"subject_id":"90061","group":"Group1","full_date":"2025-12-06T20:17:57.722Z","date":"2025-12-06","time":"20:17:57"},{"rt":null,"stimulus":"<p style=\"font-size: 50px; margin: 0; text-align: center;\">+</p>","response":null,"trial_type":"html-keyboard-response","trial_index":245,"plugin_version":"2.1.0","time_elapsed":802827,"subject_id":"90061","group":"Group1","full_date":"2025-12-06T20:17:57.722Z","date":"2025-12-06","time":"20:17:57"},{"task":"memory_phase","broad_category":"I","image_png":"I_Obsidian_05.png","image_id":85,"category_name":"Obsidian","category":6,"distinct_rating":7.32,"distinct_type":"Top","rt":null,"stimulus":"Stimuli_Rocks480/I_Obsidian_05.png","response":null,"trial_type":"image-keyboard-response","trial_index":246,"plugin_version":"2.1.0","time_elapsed":805330,"subject_id":"90061","group":"Group1","full_date":"2025-12-06T20:17:57.722Z","date":"2025-12-06","time":"20:17:57"},{"rt":null,"stimulus":"<p style=\"font-size: 50px; margin: 0; text-align: center;\">+</p>","response":null,"trial_type":"html-keyboard-response","trial_index":247,"plugin_version":"2.1.0","time_elapsed":806332,"subject_id":"90061","group":"Group1","full_date":"2025-12-06T20:17:57.722Z","date":"2025-12-06","time":"20:17:57"},{"task":"memory_phase","broad_category":"I","image_png":"I_Andesite_06.png","image_id":6,"category_name":"Andesite","category":1,"distinct_rating":3.17,"distinct_type":"Bottom","rt":null,"stimulus":"Stimuli_Rocks480/I_Andesite_06.png","response":null,"trial_type":"image-keyboard-response","trial_index":248,"plugin_version":"2.1.0","time_elapsed":808835,"subject_id":"90061","group":"Group1","f