[{"width":1470,"height":831,"webaudio":true,"browser":"chrome","browser_version":"139.0.0","mobile":false,"os":"Mac OS","fullscreen":true,"vsync_rate":60.71,"webcam":true,"microphone":true,"trial_type":"browser-check","trial_index":0,"plugin_version":"2.1.0","time_elapsed":1005,"subject_id":"86827","group":"Group2"},{"success":true,"timeout":false,"failed_images":[],"failed_audio":[],"failed_video":[],"trial_type":"preload","trial_index":1,"plugin_version":"2.1.0","time_elapsed":9885,"subject_id":"86827","group":"Group2"},{"rt":8804,"url":"SONA_consent_memorability.html","trial_type":"external-html","trial_index":2,"plugin_version":"2.1.0","time_elapsed":18732,"subject_id":"86827","group":"Group2"},{"success":true,"rt":1329,"trial_type":"fullscreen","trial_index":3,"plugin_version":"2.1.0","time_elapsed":21064,"subject_id":"86827","group":"Group2"},{"rt":20494,"stimulus":"<div style=\"max-width: 760px; margin: auto; font-size: 20px; line-height: 1.5;\">\n      <h1 style=\"text-align:center; font-size: 30px;\">Instructions</h1>\n      <p>\n        Welcome to the study on <b>visual memory</b>. This experiment consists of <b>two phases</b>: \n        a <b>study phase</b> and a <b>test phase</b>.\n      </p>\n      <p>\n        In the study phase, you will see a series of rock images along with their category labels.\n        The images will appear one at a time.\n        <b>Your task</b> is to learn the categories to which the rock images belong \n        and to remember each image as accurately as possible.\n      </p> \n      <p>\n        After the study phase, <b>your memory will be tested</b>. \n        Additional instructions for the test phase will be provided at that time.\n      </p>\n      <p>\n        If your computer has multiple <b>language settings</b> (e.g., English and another language),\n        please make sure it is set to English before starting.\n      </p>\n      <p>\n        You can track your progress using the <b>completion bar</b> at the top of the screen. \n        Please note that the bar will refresh when the test phase begins \n        to give you an accurate sense of your progress in both phases.\n      </p> \n      <p>\n        Press the button below when you are ready to begin.\n      </p>\n    </div>","response":0,"trial_type":"html-button-response","trial_index":4,"plugin_version":"2.1.0","time_elapsed":41562,"subject_id":"86827","group":"Group2"},{"rt":null,"stimulus":"<p style=\"font-size: 50px; margin: 0; text-align: center;\">+</p>","response":null,"trial_type":"html-keyboard-response","trial_index":5,"plugin_version":"2.1.0","time_elapsed":42566,"subject_id":"86827","group":"Group2"},{"task":"memory_phase","broad_category":"M","image_png":"M_Slate_14.png","image_id":318,"category_name":"Slate","category":20,"distinct_rating":2.58,"rt":null,"stimulus":"Stimuli_Rocks480/M_Slate_14.png","response":null,"trial_type":"image-keyboard-response","trial_index":6,"plugin_version":"2.1.0","time_elapsed":45072,"subject_id":"86827","group":"Group2"},{"rt":null,"stimulus":"<p style=\"font-size: 50px; margin: 0; text-align: center;\">+</p>","response":null,"trial_type":"html-keyboard-response","trial_index":7,"plugin_version":"2.1.0","time_elapsed":46075,"subject_id":"86827","group":"Group2"},{"task":"memory_phase","broad_category":"I","image_png":"I_Basalt_06.png","image_id":22,"category_name":"Basalt","category":2,"distinct_rating":2.08,"rt":null,"stimulus":"Stimuli_Rocks480/I_Basalt_06.png","response":null,"trial_type":"image-keyboard-response","trial_index":8,"plugin_version":"2.1.0","time_elapsed":48578,"subject_id":"86827","group":"Group2"},{"rt":null,"stimulus":"<p style=\"font-size: 50px; margin: 0; text-align: center;\">+</p>","response":null,"trial_type":"html-keyboard-response","trial_index":9,"plugin_version":"2.1.0","time_elapsed":49588,"subject_id":"86827","group":"Group2"},{"task":"memory_phase","broad_category":"M","image_png":"M_Schist_16.png","image_id":304,"category_name":"Schist","category":19,"distinct_rating":4.97,"rt":null,"stimulus":"Stimuli_Rocks480/M_Schist_16.png","response":null,"trial_type":"image-keyboard-response","trial_index":10,"plugin_version":"2.1.0","time_elapsed":52091,"subject_id":"86827","group":"Group2"},{"rt":null,"stimulus":"<p style=\"font-size: 50px; margin: 0; text-align: center;\">+</p>","response":null,"trial_type":"html-keyboard-response","trial_index":11,"plugin_version":"2.1.0","time_elapsed":53094,"subject_id":"86827","group":"Group2"},{"task":"memory_phase","broad_category":"S","image_png":"S_Micrite_11.png","image_id":411,"category_name":"Micrite","category":26,"distinct_rating":1.87,"rt":null,"stimulus":"Stimuli_Rocks480/S_Micrite_11.png","response":null,"trial_type":"image-keyboard-response","trial_index":12,"plugin_version":"2.1.0","time_elapsed":55596,"subject_id":"86827","group":"Group2"},{"rt":null,"stimulus":"<p style=\"font-size: 50px; margin: 0; text-align: center;\">+</p>","response":null,"trial_type":"html-keyboard-response","trial_index":13,"plugin_version":"2.1.0","time_elapsed":56599,"subject_id":"86827","group":"Group2"},{"task":"memory_phase","broad_category":"I","image_png":"I_Pegmatite_05.png","image_id":101,"category_name":"Pegmatite","category":7,"distinct_rating":6.22,"rt":null,"stimulus":"Stimuli_Rocks480/I_Pegmatite_05.png","response":null,"trial_type":"image-keyboard-response","trial_index":14,"plugin_version":"2.1.0","time_elapsed":59103,"subject_id":"86827","group":"Group2"},{"rt":null,"stimulus":"<p style=\"font-size: 50px; margin: 0; text-align: center;\">+</p>","response":null,"trial_type":"html-keyboard-response","trial_index":15,"plugin_version":"2.1.0","time_elapsed":60105,"subject_id":"86827","group":"Group2"},{"task":"memory_phase","broad_category":"S","image_png":"S_Bituminous Coal_01.png","image_id":321,"category_name":"Bituminous Coal","category":21,"distinct_rating":4.17,"rt":null,"stimulus":"Stimuli_Rocks480/S_Bituminous Coal_01.png","response":null,"trial_type":"image-keyboard-response","trial_index":16,"plugin_version":"2.1.0","time_elapsed":62608,"subject_id":"86827","group":"Group2"},{"rt":null,"stimulus":"<p style=\"font-size: 50px; margin: 0; text-align: center;\">+</p>","response":null,"trial_type":"html-keyboard-response","trial_index":17,"plugin_version":"2.1.0","time_elapsed":63611,"subject_id":"86827","group":"Group2"},{"task":"memory_phase","broad_category":"M","image_png":"M_Phyllite_14.png","image_id":270,"category_name":"Phyllite","category":17,"distinct_rating":4.08,"rt":null,"stimulus":"Stimuli_Rocks480/M_Phyllite_14.png","response":null,"trial_type":"image-keyboard-response","trial_index":18,"plugin_version":"2.1.0","time_elapsed":66114,"subject_id":"86827","group":"Group2"},{"rt":null,"stimulus":"<p style=\"font-size: 50px; margin: 0; text-align: center;\">+</p>","response":null,"trial_type":"html-keyboard-response","trial_index":19,"plugin_version":"2.1.0","time_elapsed":67116,"subject_id":"86827","group":"Group2"},{"task":"memory_phase","broad_category":"S","image_png":"S_Chert_07.png","image_id":359,"category_name":"Chert","category":23,"distinct_rating":2.65,"rt":null,"stimulus":"Stimuli_Rocks480/S_Chert_07.png","response":null,"trial_type":"image-keyboard-response","trial_index":20,"plugin_version":"2.1.0","time_elapsed":69619,"subject_id":"86827","group":"Group2"},{"rt":null,"stimulus":"<p style=\"font-size: 50px; margin: 0; text-align: center;\">+</p>","response":null,"trial_type":"html-keyboard-response","trial_index":21,"plugin_version":"2.1.0","time_elapsed":70622,"subject_id":"86827","group":"Group2"},{"task":"memory_phase","broad_category":"I","image_png":"I_Pegmatite_03.png","image_id":99,"category_name":"Pegmatite","category":7,"distinct_rating":7.24,"rt":null,"stimulus":"Stimuli_Rocks480/I_Pegmatite_03.png","response":null,"trial_type":"image-keyboard-response","trial_index":22,"plugin_version":"2.1.0","time_elapsed":73126,"subject_id":"86827","group":"Group2"},{"rt":null,"stimulus":"<p style=\"font-size: 50px; margin: 0; text-align: center;\">+</p>","response":null,"trial_type":"html-keyboard-response","trial_index":23,"plugin_version":"2.1.0","time_elapsed":74128,"subject_id":"86827","group":"Group2"},{"task":"memory_phase","broad_category":"I","image_png":"I_Granite_12.png","image_id":76,"category_name":"Granite","category":5,"distinct_rating":3.86,"rt":null,"stimulus":"Stimuli_Rocks480/I_Granite_12.png","response":null,"trial_type":"image-keyboard-response","trial_index":24,"plugin_version":"2.1.0","time_elapsed":76631,"subject_id":"86827","group":"Group2"},{"rt":null,"stimulus":"<p style=\"font-size: 50px; margin: 0; text-align: center;\">+</p>","response":null,"trial_type":"html-keyboard-response","trial_index":25,"plugin_version":"2.1.0","time_elapsed":77633,"subject_id":"86827","group":"Group2"},{"task":"memory_phase","broad_category":"S","image_png":"S_Bituminous Coal_06.png","image_id":326,"category_name":"Bituminous Coal","category":21,"distinct_rating":3.4,"rt":null,"stimulus":"Stimuli_Rocks480/S_Bituminous Coal_06.png","response":null,"trial_type":"image-keyboard-response","trial_index":26,"plugin_version":"2.1.0","time_elapsed":80137,"subject_id":"86827","group":"Group2"},{"rt":null,"stimulus":"<p style=\"font-size: 50px; margin: 0; text-align: center;\">+</p>","response":null,"trial_type":"html-keyboard-response","trial_index":27,"plugin_version":"2.1.0","time_elapsed":81139,"subject_id":"86827","group":"Group2"},{"task":"memory_phase","broad_category":"M","image_png":"M_Amphibolite_15.png","image_id":175,"category_name":"Amphibolite","category":11,"distinct_rating":2.7,"rt":null,"stimulus":"Stimuli_Rocks480/M_Amphibolite_15.png","response":null,"trial_type":"image-keyboard-response","trial_index":28,"plugin_version":"2.1.0","time_elapsed":83643,"subject_id":"86827","group":"Group2"},{"rt":null,"stimulus":"<p style=\"font-size: 50px; margin: 0; text-align: center;\">+</p>","response":null,"trial_type":"html-keyboard-response","trial_index":29,"plugin_version":"2.1.0","time_elapsed":84645,"subject_id":"86827","group":"Group2"},{"task":"memory_phase","broad_category":"I","image_png":"I_Pegmatite_15.png","image_id":111,"category_name":"Pegmatite","category":7,"distinct_rating":7.02,"rt":null,"stimulus":"Stimuli_Rocks480/I_Pegmatite_15.png","response":null,"trial_type":"image-keyboard-response","trial_index":30,"plugin_version":"2.1.0","time_elapsed":87148,"subject_id":"86827","group":"Group2"},{"rt":null,"stimulus":"<p style=\"font-size: 50px; margin: 0; text-align: center;\">+</p>","response":null,"trial_type":"html-keyboard-response","trial_index":31,"plugin_version":"2.1.0","time_elapsed":88151,"subject_id":"86827","group":"Group2"},{"task":"memory_phase","broad_category":"M","image_png":"M_Hornfels_13.png","image_id":221,"category_name":"Hornfels","category":14,"distinct_rating":3.2,"rt":null,"stimulus":"Stimuli_Rocks480/M_Hornfels_13.png","response":null,"trial_type":"image-keyboard-response","trial_index":32,"plugin_version":"2.1.0","time_elapsed":90655,"subject_id":"86827","group":"Group2"},{"rt":null,"stimulus":"<p style=\"font-size: 50px; margin: 0; text-align: center;\">+</p>","response":null,"trial_type":"html-keyboard-response","trial_index":33,"plugin_version":"2.1.0","time_elapsed":91657,"subject_id":"86827","group":"Group2"},{"task":"memory_phase","broad_category":"I","image_png":"I_Gabbro_08.png","image_id":56,"category_name":"Gabbro","category":4,"distinct_rating":3.02,"rt":null,"stimulus":"Stimuli_Rocks480/I_Gabbro_08.png","response":null,"trial_type":"image-keyboard-response","trial_index":34,"plugin_version":"2.1.0","time_elapsed":94160,"subject_id":"86827","group":"Group2"},{"rt":null,"stimulus":"<p style=\"font-size: 50px; margin: 0; text-align: center;\">+</p>","response":null,"trial_type":"html-keyboard-response","trial_index":35,"plugin_version":"2.1.0","time_elapsed":95162,"subject_id":"86827","group":"Group2"},{"task":"memory_phase","broad_category":"M","image_png":"M_Amphibolite_05.png","image_id":165,"category_name":"Amphibolite","category":11,"distinct_rating":3.59,"rt":null,"stimulus":"Stimuli_Rocks480/M_Amphibolite_05.png","response":null,"trial_type":"image-keyboard-response","trial_index":36,"plugin_version":"2.1.0","time_elapsed":97665,"subject_id":"86827","group":"Group2"},{"rt":null,"stimulus":"<p style=\"font-size: 50px; margin: 0; text-align: center;\">+</p>","response":null,"trial_type":"html-keyboard-response","trial_index":37,"plugin_version":"2.1.0","time_elapsed":98668,"subject_id":"86827","group":"Group2"},{"task":"memory_phase","broad_category":"S","image_png":"S_Bituminous Coal_09.png","image_id":329,"category_name":"Bituminous Coal","category":21,"distinct_rating":4.68,"rt":null,"stimulus":"Stimuli_Rocks480/S_Bituminous Coal_09.png","response":null,"trial_type":"image-keyboard-response","trial_index":38,"plugin_version":"2.1.0","time_elapsed":101171,"subject_id":"86827","group":"Group2"},{"rt":null,"stimulus":"<p style=\"font-size: 50px; margin: 0; text-align: center;\">+</p>","response":null,"trial_type":"html-keyboard-response","trial_index":39,"plugin_version":"2.1.0","time_elapsed":102174,"subject_id":"86827","group":"Group2"},{"task":"memory_phase","broad_category":"M","image_png":"M_Schist_09.png","image_id":297,"category_name":"Schist","category":19,"distinct_rating":3.31,"rt":null,"stimulus":"Stimuli_Rocks480/M_Schist_09.png","response":null,"trial_type":"image-keyboard-response","trial_index":40,"plugin_version":"2.1.0","time_elapsed":104677,"subject_id":"86827","group":"Group2"},{"rt":null,"stimulus":"<p style=\"font-size: 50px; margin: 0; text-align: center;\">+</p>","response":null,"trial_type":"html-keyboard-response","trial_index":41,"plugin_version":"2.1.0","time_elapsed":105678,"subject_id":"86827","group":"Group2"},{"task":"memory_phase","broad_category":"M","image_png":"M_Hornfels_08.png","image_id":216,"category_name":"Hornfels","category":14,"distinct_rating":2.9,"rt":null,"stimulus":"Stimuli_Rocks480/M_Hornfels_08.png","response":null,"trial_type":"image-keyboard-response","trial_index":42,"plugin_version":"2.1.0","time_elapsed":108181,"subject_id":"86827","group":"Group2"},{"rt":null,"stimulus":"<p style=\"font-size: 50px; margin: 0; text-align: center;\">+</p>","response":null,"trial_type":"html-keyboard-response","trial_index":43,"plugin_version":"2.1.0","time_elapsed":109183,"subject_id":"86827","group":"Group2"},{"task":"memory_phase","broad_category":"I","image_png":"I_Diorite_09.png","image_id":41,"category_name":"Diorite","category":3,"distinct_rating":4.38,"rt":null,"stimulus":"Stimuli_Rocks480/I_Diorite_09.png","response":null,"trial_type":"image-keyboard-response","trial_index":44,"plugin_version":"2.1.0","time_elapsed":111686,"subject_id":"86827","group":"Group2"},{"rt":null,"stimulus":"<p style=\"font-size: 50px; margin: 0; text-align: center;\">+</p>","response":null,"trial_type":"html-keyboard-response","trial_index":45,"plugin_version":"2.1.0","time_elapsed":112689,"subject_id":"86827","group":"Group2"},{"task":"memory_phase","broad_category":"M","image_png":"M_Amphibolite_07.png","image_id":167,"category_name":"Amphibolite","category":11,"distinct_rating":3.78,"rt":null,"stimulus":"Stimuli_Rocks480/M_Amphibolite_07.png","response":null,"trial_type":"image-keyboard-response","trial_index":46,"plugin_version":"2.1.0","time_elapsed":115192,"subject_id":"86827","group":"Group2"},{"rt":null,"stimulus":"<p style=\"font-size: 50px; margin: 0; text-align: center;\">+</p>","response":null,"trial_type":"html-keyboard-response","trial_index":47,"plugin_version":"2.1.0","time_elapsed":116194,"subject_id":"86827","group":"Group2"},{"task":"memory_phase","broad_category":"M","image_png":"M_Amphibolite_06.png","image_id":166,"category_name":"Amphibolite","category":11,"distinct_rating":2.8,"rt":null,"stimulus":"Stimuli_Rocks480/M_Amphibolite_06.png","response":null,"trial_type":"image-keyboard-response","trial_index":48,"plugin_version":"2.1.0","time_elapsed":118698,"subject_id":"86827","group":"Group2"},{"rt":null,"stimulus":"<p style=\"font-size: 50px; margin: 0; text-align: center;\">+</p>","response":null,"trial_type":"html-keyboard-response","trial_index":49,"plugin_version":"2.1.0","time_elapsed":119700,"subject_id":"86827","group":"Group2"},{"task":"memory_phase","broad_category":"I","image_png":"I_Pumice_11.png","image_id":139,"category_name":"Pumice","category":9,"distinct_rating":1.74,"rt":null,"stimulus":"Stimuli_Rocks480/I_Pumice_11.png","response":null,"trial_type":"image-keyboard-response","trial_index":50,"plugin_version":"2.1.0","time_elapsed":122203,"subject_id":"86827","group":"Group2"},{"rt":null,"stimulus":"<p style=\"font-size: 50px; margin: 0; text-align: center;\">+</p>","response":null,"trial_type":"html-keyboard-response","trial_index":51,"plugin_version":"2.1.0","time_elapsed":123205,"subject_id":"86827","group":"Group2"},{"task":"memory_phase","broad_category":"M","image_png":"M_Migmatite_07.png","image_id":247,"category_name":"Migmatite","category":16,"distinct_rating":4.38,"rt":null,"stimulus":"Stimuli_Rocks480/M_Migmatite_07.png","response":null,"trial_type":"image-keyboard-response","trial_index":52,"plugin_version":"2.1.0","time_elapsed":125709,"subject_id":"86827","group":"Group2"},{"rt":null,"stimulus":"<p style=\"font-size: 50px; margin: 0; text-align: center;\">+</p>","response":null,"trial_type":"html-keyboard-response","trial_index":53,"plugin_version":"2.1.0","time_elapsed":126711,"subject_id":"86827","group":"Group2"},{"task":"memory_phase","broad_category":"I","image_png":"I_Pumice_02.png","image_id":130,"category_name":"Pumice","category":9,"distinct_rating":4.41,"rt":null,"stimulus":"Stimuli_Rocks480/I_Pumice_02.png","response":null,"trial_type":"image-keyboard-response","trial_index":54,"plugin_version":"2.1.0","time_elapsed":129214,"subject_id":"86827","group":"Group2"},{"rt":null,"stimulus":"<p style=\"font-size: 50px; margin: 0; text-align: center;\">+</p>","response":null,"trial_type":"html-keyboard-response","trial_index":55,"plugin_version":"2.1.0","time_elapsed":130216,"subject_id":"86827","group":"Group2"},{"task":"memory_phase","broad_category":"I","image_png":"I_Granite_16.png","image_id":80,"category_name":"Granite","category":5,"distinct_rating":4.06,"rt":null,"stimulus":"Stimuli_Rocks480/I_Granite_16.png","response":null,"trial_type":"image-keyboard-response","trial_index":56,"plugin_version":"2.1.0","time_elapsed":132719,"subject_id":"86827","group":"Group2"},{"rt":null,"stimulus":"<p style=\"font-size: 50px; margin: 0; text-align: center;\">+</p>","response":null,"trial_type":"html-keyboard-response","trial_index":57,"plugin_version":"2.1.0","time_elapsed":133722,"subject_id":"86827","group":"Group2"},{"task":"memory_phase","broad_category":"M","image_png":"M_Anthracite_04.png","image_id":180,"category_name":"Anthracite","category":12,"distinct_rating":6.25,"rt":null,"stimulus":"Stimuli_Rocks480/M_Anthracite_04.png","response":null,"trial_type":"image-keyboard-response","trial_index":58,"plugin_version":"2.1.0","time_elapsed":136225,"subject_id":"86827","group":"Group2"},{"rt":null,"stimulus":"<p style=\"font-size: 50px; margin: 0; text-align: center;\">+</p>","response":null,"trial_type":"html-keyboard-response","trial_index":59,"plugin_version":"2.1.0","time_elapsed":137227,"subject_id":"86827","group":"Group2"},{"task":"memory_phase","broad_category":"M","image_png":"M_Gneiss_12.png","image_id":204,"category_name":"Gneiss","category":13,"distinct_rating":4.52,"rt":null,"stimulus":"Stimuli_Rocks480/M_Gneiss_12.png","response":null,"trial_type":"image-keyboard-response","trial_index":60,"plugin_version":"2.1.0","time_elapsed":139730,"subject_id":"86827","group":"Group2"},{"rt":null,"stimulus":"<p style=\"font-size: 50px; margin: 0; text-align: center;\">+</p>","response":null,"trial_type":"html-keyboard-response","trial_index":61,"plugin_version":"2.1.0","time_elapsed":140732,"subject_id":"86827","group":"Group2"},{"task":"memory_phase","broad_category":"M","image_png":"M_Slate_13.png","image_id":317,"category_name":"Slate","category":20,"distinct_rating":2.45,"rt":null,"stimulus":"Stimuli_Rocks480/M_Slate_13.png","response":null,"trial_type":"image-keyboard-response","trial_index":62,"plugin_version":"2.1.0","time_elapsed":143236,"subject_id":"86827","group":"Group2"},{"rt":null,"stimulus":"<p style=\"font-size: 50px; margin: 0; text-align: center;\">+</p>","response":null,"trial_type":"html-keyboard-response","trial_index":63,"plugin_version":"2.1.0","time_elapsed":144238,"subject_id":"86827","group":"Group2"},{"task":"memory_phase","broad_category":"M","image_png":"M_Marble_16.png","image_id":240,"category_name":"Marble","category":15,"distinct_rating":2.57,"rt":null,"stimulus":"Stimuli_Rocks480/M_Marble_16.png","response":null,"trial_type":"image-keyboard-response","trial_index":64,"plugin_version":"2.1.0","time_elapsed":146742,"subject_id":"86827","group":"Group2"},{"rt":null,"stimulus":"<p style=\"font-size: 50px; margin: 0; text-align: center;\">+</p>","response":null,"trial_type":"html-keyboard-response","trial_index":65,"plugin_version":"2.1.0","time_elapsed":147744,"subject_id":"86827","group":"Group2"},{"task":"memory_phase","broad_category":"M","image_png":"M_Gneiss_06.png","image_id":198,"category_name":"Gneiss","category":13,"distinct_rating":2.65,"rt":null,"stimulus":"Stimuli_Rocks480/M_Gneiss_06.png","response":null,"trial_type":"image-keyboard-response","trial_index":66,"plugin_version":"2.1.0","time_elapsed":150247,"subject_id":"86827","group":"Group2"},{"rt":null,"stimulus":"<p style=\"font-size: 50px; margin: 0; text-align: center;\">+</p>","response":null,"trial_type":"html-keyboard-response","trial_index":67,"plugin_version":"2.1.0","time_elapsed":151249,"subject_id":"86827","group":"Group2"},{"task":"memory_phase","broad_category":"M","image_png":"M_Gneiss_14.png","image_id":206,"category_name":"Gneiss","category":13,"distinct_rating":3.41,"rt":null,"stimulus":"Stimuli_Rocks480/M_Gneiss_14.png","response":null,"trial_type":"image-keyboard-response","trial_index":68,"plugin_version":"2.1.0","time_elapsed":153753,"subject_id":"86827","group":"Group2"},{"rt":null,"stimulus":"<p style=\"font-size: 50px; margin: 0; text-align: center;\">+</p>","response":null,"trial_type":"html-keyboard-response","trial_index":69,"plugin_version":"2.1.0","time_elapsed":154755,"subject_id":"86827","group":"Group2"},{"task":"memory_phase","broad_category":"M","image_png":"M_Amphibolite_12.png","image_id":172,"category_name":"Amphibolite","category":11,"distinct_rating":5.62,"rt":null,"stimulus":"Stimuli_Rocks480/M_Amphibolite_12.png","response":null,"trial_type":"image-keyboard-response","trial_index":70,"plugin_version":"2.1.0","time_elapsed":157259,"subject_id":"86827","group":"Group2"},{"rt":null,"stimulus":"<p style=\"font-size: 50px; margin: 0; text-align: center;\">+</p>","response":null,"trial_type":"html-keyboard-response","trial_index":71,"plugin_version":"2.1.0","time_elapsed":158261,"subject_id":"86827","group":"Group2"},{"task":"memory_phase","broad_category":"M","image_png":"M_Phyllite_05.png","image_id":261,"category_name":"Phyllite","category":17,"distinct_rating":2.14,"rt":null,"stimulus":"Stimuli_Rocks480/M_Phyllite_05.png","response":null,"trial_type":"image-keyboard-response","trial_index":72,"plugin_version":"2.1.0","time_elapsed":160763,"subject_id":"86827","group":"Group2"},{"rt":null,"stimulus":"<p style=\"font-size: 50px; margin: 0; text-align: center;\">+</p>","response":null,"trial_type":"html-keyboard-response","trial_index":73,"plugin_version":"2.1.0","time_elapsed":161765,"subject_id":"86827","group":"Group2"},{"task":"memory_phase","broad_category":"I","image_png":"I_Diorite_06.png","image_id":38,"category_name":"Diorite","category":3,"distinct_rating":3.72,"rt":null,"stimulus":"Stimuli_Rocks480/I_Diorite_06.png","response":null,"trial_type":"image-keyboard-response","trial_index":74,"plugin_version":"2.1.0","time_elapsed":164268,"subject_id":"86827","group":"Group2"},{"rt":null,"stimulus":"<p style=\"font-size: 50px; margin: 0; text-align: center;\">+</p>","response":null,"trial_type":"html-keyboard-response","trial_index":75,"plugin_version":"2.1.0","time_elapsed":165271,"subject_id":"86827","group":"Group2"},{"task":"memory_phase","broad_category":"S","image_png":"S_Dolomite_03.png","image_id":387,"category_name":"Dolomite","category":25,"distinct_rating":3.42,"rt":null,"stimulus":"Stimuli_Rocks480/S_Dolomite_03.png","response":null,"trial_type":"image-keyboard-response","trial_index":76,"plugin_version":"2.1.0","time_elapsed":167773,"subject_id":"86827","group":"Group2"},{"rt":null,"stimulus":"<p style=\"font-size: 50px; margin: 0; text-align: center;\">+</p>","response":null,"trial_type":"html-keyboard-response","trial_index":77,"plugin_version":"2.1.0","time_elapsed":168775,"subject_id":"86827","group":"Group2"},{"task":"memory_phase","broad_category":"M","image_png":"M_Amphibolite_09.png","image_id":169,"category_name":"Amphibolite","category":11,"distinct_rating":3.83,"rt":null,"stimulus":"Stimuli_Rocks480/M_Amphibolite_09.png","response":null,"trial_type":"image-keyboard-response","trial_index":78,"plugin_version":"2.1.0","time_elapsed":171278,"subject_id":"86827","group":"Group2"},{"rt":null,"stimulus":"<p style=\"font-size: 50px; margin: 0; text-align: center;\">+</p>","response":null,"trial_type":"html-keyboard-response","trial_index":79,"plugin_version":"2.1.0","time_elapsed":172280,"subject_id":"86827","group":"Group2"},{"task":"memory_phase","broad_category":"I","image_png":"I_Obsidian_09.png","image_id":89,"category_name":"Obsidian","category":6,"distinct_rating":5.85,"rt":null,"stimulus":"Stimuli_Rocks480/I_Obsidian_09.png","response":null,"trial_type":"image-keyboard-response","trial_index":80,"plugin_version":"2.1.0","time_elapsed":174783,"subject_id":"86827","group":"Group2"},{"rt":null,"stimulus":"<p style=\"font-size: 50px; margin: 0; text-align: center;\">+</p>","response":null,"trial_type":"html-keyboard-response","trial_index":81,"plugin_version":"2.1.0","time_elapsed":175785,"subject_id":"86827","group":"Group2"},{"task":"memory_phase","broad_category":"M","image_png":"M_Gneiss_08.png","image_id":200,"category_name":"Gneiss","category":13,"distinct_rating":3.69,"rt":null,"stimulus":"Stimuli_Rocks480/M_Gneiss_08.png","response":null,"trial_type":"image-keyboard-response","trial_index":82,"plugin_version":"2.1.0","time_elapsed":178288,"subject_id":"86827","group":"Group2"},{"rt":null,"stimulus":"<p style=\"font-size: 50px; margin: 0; text-align: center;\">+</p>","response":null,"trial_type":"html-keyboard-response","trial_index":83,"plugin_version":"2.1.0","time_elapsed":179291,"subject_id":"86827","group":"Group2"},{"task":"memory_phase","broad_category":"I","image_png":"I_Rhyolite_04.png","image_id":148,"category_name":"Rhyolite","category":10,"distinct_rating":3.73,"rt":null,"stimulus":"Stimuli_Rocks480/I_Rhyolite_04.png","response":null,"trial_type":"image-keyboard-response","trial_index":84,"plugin_version":"2.1.0","time_elapsed":181794,"subject_id":"86827","group":"Group2"},{"rt":null,"stimulus":"<p style=\"font-size: 50px; margin: 0; text-align: center;\">+</p>","response":null,"trial_type":"html-keyboard-response","trial_index":85,"plugin_version":"2.1.0","time_elapsed":182796,"subject_id":"86827","group":"Group2"},{"task":"memory_phase","broad_category":"M","image_png":"M_Hornfels_02.png","image_id":210,"category_name":"Hornfels","category":14,"distinct_rating":2,"rt":null,"stimulus":"Stimuli_Rocks480/M_Hornfels_02.png","response":null,"trial_type":"image-keyboard-response","trial_index":86,"plugin_version":"2.1.0","time_elapsed":185299,"subject_id":"86827","group":"Group2"},{"rt":null,"stimulus":"<p style=\"font-size: 50px; margin: 0; text-align: center;\">+</p>","response":null,"trial_type":"html-keyboard-response","trial_index":87,"plugin_version":"2.1.0","time_elapsed":186301,"subject_id":"86827","group":"Group2"},{"task":"memory_phase","broad_category":"M","image_png":"M_Anthracite_14.png","image_id":190,"category_name":"Anthracite","category":12,"distinct_rating":4.36,"rt":null,"stimulus":"Stimuli_Rocks480/M_Anthracite_14.png","response":null,"trial_type":"image-keyboard-response","trial_index":88,"plugin_version":"2.1.0","time_elapsed":188804,"subject_id":"86827","group":"Group2"},{"rt":null,"stimulus":"<p style=\"font-size: 50px; margin: 0; text-align: center;\">+</p>","response":null,"trial_type":"html-keyboard-response","trial_index":89,"plugin_version":"2.1.0","time_elapsed":189807,"subject_id":"86827","group":"Group2"},{"task":"memory_phase","broad_category":"I","image_png":"I_Diorite_07.png","image_id":39,"category_name":"Diorite","category":3,"distinct_rating":4.63,"rt":null,"stimulus":"Stimuli_Rocks480/I_Diorite_07.png","response":null,"trial_type":"image-keyboard-response","trial_index":90,"plugin_version":"2.1.0","time_elapsed":192309,"subject_id":"86827","group":"Group2"},{"rt":null,"stimulus":"<p style=\"font-size: 50px; margin: 0; text-align: center;\">+</p>","response":null,"trial_type":"html-keyboard-response","trial_index":91,"plugin_version":"2.1.0","time_elapsed":193312,"subject_id":"86827","group":"Group2"},{"task":"memory_phase","broad_category":"M","image_png":"M_Quartzite_15.png","image_id":287,"category_name":"Quartzite","category":18,"distinct_rating":2.19,"rt":null,"stimulus":"Stimuli_Rocks480/M_Quartzite_15.png","response":null,"trial_type":"image-keyboard-response","trial_index":92,"plugin_version":"2.1.0","time_elapsed":195815,"subject_id":"86827","group":"Group2"},{"rt":null,"stimulus":"<p style=\"font-size: 50px; margin: 0; text-align: center;\">+</p>","response":null,"trial_type":"html-keyboard-response","trial_index":93,"plugin_version":"2.1.0","time_elapsed":196817,"subject_id":"86827","group":"Group2"},{"task":"memory_phase","broad_category":"I","image_png":"I_Andesite_14.png","image_id":14,"category_name":"Andesite","category":1,"distinct_rating":4.47,"rt":null,"stimulus":"Stimuli_Rocks480/I_Andesite_14.png","response":null,"trial_type":"image-keyboard-response","trial_index":94,"plugin_version":"2.1.0","time_elapsed":199320,"subject_id":"86827","group":"Group2"},{"rt":null,"stimulus":"<p style=\"font-size: 50px; margin: 0; text-align: center;\">+</p>","response":null,"trial_type":"html-keyboard-response","trial_index":95,"plugin_version":"2.1.0","time_elapsed":200323,"subject_id":"86827","group":"Group2"},{"task":"memory_phase","broad_category":"S","image_png":"S_Dolomite_02.png","image_id":386,"category_name":"Dolomite","category":25,"distinct_rating":5.49,"rt":null,"stimulus":"Stimuli_Rocks480/S_Dolomite_02.png","response":null,"trial_type":"image-keyboard-response","trial_index":96,"plugin_version":"2.1.0","time_elapsed":202826,"subject_id":"86827","group":"Group2"},{"rt":null,"stimulus":"<p style=\"font-size: 50px; margin: 0; text-align: center;\">+</p>","response":null,"trial_type":"html-keyboard-response","trial_index":97,"plugin_version":"2.1.0","time_elapsed":203829,"subject_id":"86827","group":"Group2"},{"task":"memory_phase","broad_category":"S","image_png":"S_Rock Salt_06.png","image_id":438,"category_name":"Rock Salt","category":28,"distinct_rating":5.53,"rt":null,"stimulus":"Stimuli_Rocks480/S_Rock Salt_06.png","response":null,"trial_type":"image-keyboard-response","trial_index":98,"plugin_version":"2.1.0","time_elapsed":206338,"subject_id":"86827","group":"Group2"},{"rt":null,"stimulus":"<p style=\"font-size: 50px; margin: 0; text-align: center;\">+</p>","response":null,"trial_type":"html-keyboard-response","trial_index":99,"plugin_version":"2.1.0","time_elapsed":207340,"subject_id":"86827","group":"Group2"},{"task":"memory_phase","broad_category":"I","image_png":"I_Peridotite_08.png","image_id":120,"category_name":"Peridotite","category":8,"distinct_rating":4.77,"rt":null,"stimulus":"Stimuli_Rocks480/I_Peridotite_08.png","response":null,"trial_type":"image-keyboard-response","trial_index":100,"plugin_version":"2.1.0","time_elapsed":209843,"subject_id":"86827","group":"Group2"},{"rt":20100,"stimulus":"<p style=\"font-size: 35px;\">Press SPACE to continue study phase</p>","response":" ","trial_type":"html-keyboard-response","trial_index":101,"plugin_version":"2.1.0","time_elapsed":229945,"subject_id":"86827","group":"Group2"},{"rt":null,"stimulus":"<p style=\"font-size: 50px; margin: 0; text-align: center;\">+</p>","response":null,"trial_type":"html-keyboard-response","trial_index":102,"plugin_version":"2.1.0","time_elapsed":230948,"subject_id":"86827","group":"Group2"},{"task":"memory_phase","broad_category":"I","image_png":"I_Granite_08.png","image_id":72,"category_name":"Granite","category":5,"distinct_rating":3.95,"rt":null,"stimulus":"Stimuli_Rocks480/I_Granite_08.png","response":null,"trial_type":"image-keyboard-response","trial_index":103,"plugin_version":"2.1.0","time_elapsed":233451,"subject_id":"86827","group":"Group2"},{"rt":null,"stimulus":"<p style=\"font-size: 50px; margin: 0; text-align: center;\">+</p>","response":null,"trial_type":"html-keyboard-response","trial_index":104,"plugin_version":"2.1.0","time_elapsed":234454,"subject_id":"86827","group":"Group2"},{"task":"memory_phase","broad_category":"S","image_png":"S_Breccia_02.png","image_id":338,"category_name":"Breccia","category":22,"distinct_rating":5.94,"rt":null,"stimulus":"Stimuli_Rocks480/S_Breccia_02.png","response":null,"trial_type":"image-keyboard-response","trial_index":105,"plugin_version":"2.1.0","time_elapsed":236957,"subject_id":"86827","group":"Group2"},{"rt":null,"stimulus":"<p style=\"font-size: 50px; margin: 0; text-align: center;\">+</p>","response":null,"trial_type":"html-keyboard-response","trial_index":106,"plugin_version":"2.1.0","time_elapsed":237959,"subject_id":"86827","group":"Group2"},{"task":"memory_phase","broad_category":"S","image_png":"S_Conglomerate_13.png","image_id":381,"category_name":"Conglomerate","category":24,"distinct_rating":6.48,"rt":null,"stimulus":"Stimuli_Rocks480/S_Conglomerate_13.png","response":null,"trial_type":"image-keyboard-response","trial_index":107,"plugin_version":"2.1.0","time_elapsed":240462,"subject_id":"86827","group":"Group2"},{"rt":null,"stimulus":"<p style=\"font-size: 50px; margin: 0; text-align: center;\">+</p>","response":null,"trial_type":"html-keyboard-response","trial_index":108,"plugin_version":"2.1.0","time_elapsed":241464,"subject_id":"86827","group":"Group2"},{"task":"memory_phase","broad_category":"I","image_png":"I_Granite_01.png","image_id":65,"category_name":"Granite","category":5,"distinct_rating":5.23,"rt":null,"stimulus":"Stimuli_Rocks480/I_Granite_01.png","response":null,"trial_type":"image-keyboard-response","trial_index":109,"plugin_version":"2.1.0","time_elapsed":243967,"subject_id":"86827","group":"Group2"},{"rt":null,"stimulus":"<p style=\"font-size: 50px; margin: 0; text-align: center;\">+</p>","response":null,"trial_type":"html-keyboard-response","trial_index":110,"plugin_version":"2.1.0","time_elapsed":244970,"subject_id":"86827","group":"Group2"},{"task":"memory_phase","broad_category":"S","image_png":"S_Rock Gypsum_11.png","image_id":427,"category_name":"Rock Gypsum","category":27,"distinct_rating":4.73,"rt":null,"stimulus":"Stimuli_Rocks480/S_Rock Gypsum_11.png","response":null,"trial_type":"image-keyboard-response","trial_index":111,"plugin_version":"2.1.0","time_elapsed":247472,"subject_id":"86827","group":"Group2"},{"rt":null,"stimulus":"<p style=\"font-size: 50px; margin: 0; text-align: center;\">+</p>","response":null,"trial_type":"html-keyboard-response","trial_index":112,"plugin_version":"2.1.0","time_elapsed":248475,"subject_id":"86827","group":"Group2"},{"task":"memory_phase","broad_category":"S","image_png":"S_Chert_05.png","image_id":357,"category_name":"Chert","category":23,"distinct_rating":5.12,"rt":null,"stimulus":"Stimuli_Rocks480/S_Chert_05.png","response":null,"trial_type":"image-keyboard-response","trial_index":113,"plugin_version":"2.1.0","time_elapsed":250979,"subject_id":"86827","group":"Group2"},{"rt":null,"stimulus":"<p style=\"font-size: 50px; margin: 0; text-align: center;\">+</p>","response":null,"trial_type":"html-keyboard-response","trial_index":114,"plugin_version":"2.1.0","time_elapsed":251981,"subject_id":"86827","group":"Group2"},{"task":"memory_phase","broad_category":"I","image_png":"I_Pumice_05.png","image_id":133,"category_name":"Pumice","category":9,"distinct_rating":3.37,"rt":null,"stimulus":"Stimuli_Rocks480/I_Pumice_05.png","response":null,"trial_type":"image-keyboard-response","trial_index":115,"plugin_version":"2.1.0","time_elapsed":254484,"subject_id":"86827","group":"Group2"},{"rt":null,"stimulus":"<p style=\"font-size: 50px; margin: 0; text-align: center;\">+</p>","response":null,"trial_type":"html-keyboard-response","trial_index":116,"plugin_version":"2.1.0","time_elapsed":255486,"subject_id":"86827","group":"Group2"},{"task":"memory_phase","broad_category":"I","image_png":"I_Diorite_02.png","image_id":34,"category_name":"Diorite","category":3,"distinct_rating":4.9,"rt":null,"stimulus":"Stimuli_Rocks480/I_Diorite_02.png","response":null,"trial_type":"image-keyboard-response","trial_index":117,"plugin_version":"2.1.0","time_elapsed":257989,"subject_id":"86827","group":"Group2"},{"rt":null,"stimulus":"<p style=\"font-size: 50px; margin: 0; text-align: center;\">+</p>","response":null,"trial_type":"html-keyboard-response","trial_index":118,"plugin_version":"2.1.0","time_elapsed":258991,"subject_id":"86827","group":"Group2"},{"task":"memory_phase","broad_category":"I","image_png":"I_Diorite_05.png","image_id":37,"category_name":"Diorite","category":3,"distinct_rating":3.08,"rt":null,"stimulus":"Stimuli_Rocks480/I_Diorite_05.png","response":null,"trial_type":"image-keyboard-response","trial_index":119,"plugin_version":"2.1.0","time_elapsed":261494,"subject_id":"86827","group":"Group2"},{"rt":null,"stimulus":"<p style=\"font-size: 50px; margin: 0; text-align: center;\">+</p>","response":null,"trial_type":"html-keyboard-response","trial_index":120,"plugin_version":"2.1.0","time_elapsed":262496,"subject_id":"86827","group":"Group2"},{"task":"memory_phase","broad_category":"I","image_png":"I_Obsidian_03.png","image_id":83,"category_name":"Obsidian","category":6,"distinct_rating":4.51,"rt":null,"stimulus":"Stimuli_Rocks480/I_Obsidian_03.png","response":null,"trial_type":"image-keyboard-response","trial_index":121,"plugin_version":"2.1.0","time_elapsed":264999,"subject_id":"86827","group":"Group2"},{"rt":null,"stimulus":"<p style=\"font-size: 50px; margin: 0; text-align: center;\">+</p>","response":null,"trial_type":"html-keyboard-response","trial_index":122,"plugin_version":"2.1.0","time_elapsed":266002,"subject_id":"86827","group":"Group2"},{"task":"memory_phase","broad_category":"M","image_png":"M_Hornfels_11.png","image_id":219,"category_name":"Hornfels","category":14,"distinct_rating":2.59,"rt":null,"stimulus":"Stimuli_Rocks480/M_Hornfels_11.png","response":null,"trial_type":"image-keyboard-response","trial_index":123,"plugin_version":"2.1.0","time_elapsed":268505,"subject_id":"86827","group":"Group2"},{"rt":null,"stimulus":"<p style=\"font-size: 50px; margin: 0; text-align: center;\">+</p>","response":null,"trial_type":"html-keyboard-response","trial_index":124,"plugin_version":"2.1.0","time_elapsed":269507,"subject_id":"86827","group":"Group2"},{"task":"memory_phase","broad_category":"M","image_png":"M_Phyllite_09.png","image_id":265,"category_name":"Phyllite","category":17,"distinct_rating":2.96,"rt":null,"stimulus":"Stimuli_Rocks480/M_Phyllite_09.png","response":null,"trial_type":"image-keyboard-response","trial_index":125,"plugin_version":"2.1.0","time_elapsed":272009,"subject_id":"86827","group":"Group2"},{"rt":null,"stimulus":"<p style=\"font-size: 50px; margin: 0; text-align: center;\">+</p>","response":null,"trial_type":"html-keyboard-response","trial_index":126,"plugin_version":"2.1.0","time_elapsed":273011,"subject_id":"86827","group":"Group2"},{"task":"memory_phase","broad_category":"S","image_png":"S_Micrite_04.png","image_id":404,"category_name":"Micrite","category":26,"distinct_rating":3.76,"rt":null,"stimulus":"Stimuli_Rocks480/S_Micrite_04.png","response":null,"trial_type":"image-keyboard-response","trial_index":127,"plugin_version":"2.1.0","time_elapsed":275514,"subject_id":"86827","group":"Group2"},{"rt":null,"stimulus":"<p style=\"font-size: 50px; margin: 0; text-align: center;\">+</p>","response":null,"trial_type":"html-keyboard-response","trial_index":128,"plugin_version":"2.1.0","time_elapsed":276516,"subject_id":"86827","group":"Group2"},{"task":"memory_phase","broad_category":"S","image_png":"S_Dolomite_04.png","image_id":388,"category_name":"Dolomite","category":25,"distinct_rating":1.93,"rt":null,"stimulus":"Stimuli_Rocks480/S_Dolomite_04.png","response":null,"trial_type":"image-keyboard-response","trial_index":129,"plugin_version":"2.1.0","time_elapsed":279019,"subject_id":"86827","group":"Group2"},{"rt":null,"stimulus":"<p style=\"font-size: 50px; margin: 0; text-align: center;\">+</p>","response":null,"trial_type":"html-keyboard-response","trial_index":130,"plugin_version":"2.1.0","time_elapsed":280021,"subject_id":"86827","group":"Group2"},{"task":"memory_phase","broad_category":"I","image_png":"I_Obsidian_15.png","image_id":95,"category_name":"Obsidian","category":6,"distinct_rating":6.67,"rt":null,"stimulus":"Stimuli_Rocks480/I_Obsidian_15.png","response":null,"trial_type":"image-keyboard-response","trial_index":131,"plugin_version":"2.1.0","time_elapsed":282524,"subject_id":"86827","group":"Group2"},{"rt":null,"stimulus":"<p style=\"font-size: 50px; margin: 0; text-align: center;\">+</p>","response":null,"trial_type":"html-keyboard-response","trial_index":132,"plugin_version":"2.1.0","time_elapsed":283526,"subject_id":"86827","group":"Group2"},{"task":"memory_phase","broad_category":"S","image_png":"S_Dolomite_14.png","image_id":398,"category_name":"Dolomite","category":25,"distinct_rating":1.43,"rt":null,"stimulus":"Stimuli_Rocks480/S_Dolomite_14.png","response":null,"trial_type":"image-keyboard-response","trial_index":133,"plugin_version":"2.1.0","time_elapsed":286029,"subject_id":"86827","group":"Group2"},{"rt":null,"stimulus":"<p style=\"font-size: 50px; margin: 0; text-align: center;\">+</p>","response":null,"trial_type":"html-keyboard-response","trial_index":134,"plugin_version":"2.1.0","time_elapsed":287031,"subject_id":"86827","group":"Group2"},{"task":"memory_phase","broad_category":"M","image_png":"M_Quartzite_11.png","image_id":283,"category_name":"Quartzite","category":18,"distinct_rating":2.89,"rt":null,"stimulus":"Stimuli_Rocks480/M_Quartzite_11.png","response":null,"trial_type":"image-keyboard-response","trial_index":135,"plugin_version":"2.1.0","time_elapsed":289535,"subject_id":"86827","group":"Group2"},{"rt":null,"stimulus":"<p style=\"font-size: 50px; margin: 0; text-align: center;\">+</p>","response":null,"trial_type":"html-keyboard-response","trial_index":136,"plugin_version":"2.1.0","time_elapsed":290537,"subject_id":"86827","group":"Group2"},{"task":"memory_phase","broad_category":"S","image_png":"S_Rock Gypsum_02.png","image_id":418,"category_name":"Rock Gypsum","category":27,"distinct_rating":5.19,"rt":null,"stimulus":"Stimuli_Rocks480/S_Rock Gypsum_02.png","response":null,"trial_type":"image-keyboard-response","trial_index":137,"plugin_version":"2.1.0","time_elapsed":293040,"subject_id":"86827","group":"Group2"},{"rt":null,"stimulus":"<p style=\"font-size: 50px; margin: 0; text-align: center;\">+</p>","response":null,"trial_type":"html-keyboard-response","trial_index":138,"plugin_version":"2.1.0","time_elapsed":294043,"subject_id":"86827","group":"Group2"},{"task":"memory_phase","broad_category":"I","image_png":"I_Pegmatite_02.png","image_id":98,"category_name":"Pegmatite","category":7,"distinct_rating":6.37,"rt":null,"stimulus":"Stimuli_Rocks480/I_Pegmatite_02.png","response":null,"trial_type":"image-keyboard-response","trial_index":139,"plugin_version":"2.1.0","time_elapsed":296547,"subject_id":"86827","group":"Group2"},{"rt":null,"stimulus":"<p style=\"font-size: 50px; margin: 0; text-align: center;\">+</p>","response":null,"trial_type":"html-keyboard-response","trial_index":140,"plugin_version":"2.1.0","time_elapsed":297549,"subject_id":"86827","group":"Group2"},{"task":"memory_phase","broad_category":"M","image_png":"M_Gneiss_13.png","image_id":205,"category_name":"Gneiss","category":13,"distinct_rating":3.26,"rt":null,"stimulus":"Stimuli_Rocks480/M_Gneiss_13.png","response":null,"trial_type":"image-keyboard-response","trial_index":141,"plugin_version":"2.1.0","time_elapsed":300053,"subject_id":"86827","group":"Group2"},{"rt":null,"stimulus":"<p style=\"font-size: 50px; margin: 0; text-align: center;\">+</p>","response":null,"trial_type":"html-keyboard-response","trial_index":142,"plugin_version":"2.1.0","time_elapsed":301055,"subject_id":"86827","group":"Group2"},{"task":"memory_phase","broad_category":"S","image_png":"S_Dolomite_16.png","image_id":400,"category_name":"Dolomite","category":25,"distinct_rating":1.71,"rt":null,"stimulus":"Stimuli_Rocks480/S_Dolomite_16.png","response":null,"trial_type":"image-keyboard-response","trial_index":143,"plugin_version":"2.1.0","time_elapsed":303558,"subject_id":"86827","group":"Group2"},{"rt":null,"stimulus":"<p style=\"font-size: 50px; margin: 0; text-align: center;\">+</p>","response":null,"trial_type":"html-keyboard-response","trial_index":144,"plugin_version":"2.1.0","time_elapsed":304560,"subject_id":"86827","group":"Group2"},{"task":"memory_phase","broad_category":"S","image_png":"S_Shale_14.png","image_id":478,"category_name":"Shale","category":30,"distinct_rating":2.68,"rt":null,"stimulus":"Stimuli_Rocks480/S_Shale_14.png","response":null,"trial_type":"image-keyboard-response","trial_index":145,"plugin_version":"2.1.0","time_elapsed":307064,"subject_id":"86827","group":"Group2"},{"rt":null,"stimulus":"<p style=\"font-size: 50px; margin: 0; text-align: center;\">+</p>","response":null,"trial_type":"html-keyboard-response","trial_index":146,"plugin_version":"2.1.0","time_elapsed":308066,"subject_id":"86827","group":"Group2"},{"task":"memory_phase","broad_category":"M","image_png":"M_Amphibolite_01.png","image_id":161,"category_name":"Amphibolite","category":11,"distinct_rating":5.2,"rt":null,"stimulus":"Stimuli_Rocks480/M_Amphibolite_01.png","response":null,"trial_type":"image-keyboard-response","trial_index":147,"plugin_version":"2.1.0","time_elapsed":310569,"subject_id":"86827","group":"Group2"},{"rt":null,"stimulus":"<p style=\"font-size: 50px; margin: 0; text-align: center;\">+</p>","response":null,"trial_type":"html-keyboard-response","trial_index":148,"plugin_version":"2.1.0","time_elapsed":311571,"subject_id":"86827","group":"Group2"},{"task":"memory_phase","broad_category":"M","image_png":"M_Marble_05.png","image_id":229,"category_name":"Marble","category":15,"distinct_rating":4.1,"rt":null,"stimulus":"Stimuli_Rocks480/M_Marble_05.png","response":null,"trial_type":"image-keyboard-response","trial_index":149,"plugin_version":"2.1.0","time_elapsed":314074,"subject_id":"86827","group":"Group2"},{"rt":null,"stimulus":"<p style=\"font-size: 50px; margin: 0; text-align: center;\">+</p>","response":null,"trial_type":"html-keyboard-response","trial_index":150,"plugin_version":"2.1.0","time_elapsed":315076,"subject_id":"86827","group":"Group2"},{"task":"memory_phase","broad_category":"M","image_png":"M_Slate_11.png","image_id":315,"category_name":"Slate","category":20,"distinct_rating":2.75,"rt":null,"stimulus":"Stimuli_Rocks480/M_Slate_11.png","response":null,"trial_type":"image-keyboard-response","trial_index":151,"plugin_version":"2.1.0","time_elapsed":317580,"subject_id":"86827","group":"Group2"},{"rt":null,"stimulus":"<p style=\"font-size: 50px; margin: 0; text-align: center;\">+</p>","response":null,"trial_type":"html-keyboard-response","trial_index":152,"plugin_version":"2.1.0","time_elapsed":318582,"subject_id":"86827","group":"Group2"},{"task":"memory_phase","broad_category":"S","image_png":"S_Bituminous Coal_04.png","image_id":324,"category_name":"Bituminous Coal","category":21,"distinct_rating":4.93,"rt":null,"stimulus":"Stimuli_Rocks480/S_Bituminous Coal_04.png","response":null,"trial_type":"image-keyboard-response","trial_index":153,"plugin_version":"2.1.0","time_elapsed":321085,"subject_id":"86827","group":"Group2"},{"rt":null,"stimulus":"<p style=\"font-size: 50px; margin: 0; text-align: center;\">+</p>","response":null,"trial_type":"html-keyboard-response","trial_index":154,"plugin_version":"2.1.0","time_elapsed":322087,"subject_id":"86827","group":"Group2"},{"task":"memory_phase","broad_category":"S","image_png":"S_Dolomite_13.png","image_id":397,"category_name":"Dolomite","category":25,"distinct_rating":1.77,"rt":null,"stimulus":"Stimuli_Rocks480/S_Dolomite_13.png","response":null,"trial_type":"image-keyboard-response","trial_index":155,"plugin_version":"2.1.0","time_elapsed":324590,"subject_id":"86827","group":"Group2"},{"rt":null,"stimulus":"<p style=\"font-size: 50px; margin: 0; text-align: center;\">+</p>","response":null,"trial_type":"html-keyboard-response","trial_index":156,"plugin_version":"2.1.0","time_elapsed":325592,"subject_id":"86827","group":"Group2"},{"task":"memory_phase","broad_category":"S","image_png":"S_Dolomite_15.png","image_id":399,"category_name":"Dolomite","category":25,"distinct_rating":2.16,"rt":null,"stimulus":"Stimuli_Rocks480/S_Dolomite_15.png","response":null,"trial_type":"image-keyboard-response","trial_index":157,"plugin_version":"2.1.0","time_elapsed":328096,"subject_id":"86827","group":"Group2"},{"rt":null,"stimulus":"<p style=\"font-size: 50px; margin: 0; text-align: center;\">+</p>","response":null,"trial_type":"html-keyboard-response","trial_index":158,"plugin_version":"2.1.0","time_elapsed":329098,"subject_id":"86827","group":"Group2"},{"task":"memory_phase","broad_category":"M","image_png":"M_Quartzite_02.png","image_id":274,"category_name":"Quartzite","category":18,"distinct_rating":2.52,"rt":null,"stimulus":"Stimuli_Rocks480/M_Quartzite_02.png","response":null,"trial_type":"image-keyboard-response","trial_index":159,"plugin_version":"2.1.0","time_elapsed":331601,"subject_id":"86827","group":"Group2"},{"rt":null,"stimulus":"<p style=\"font-size: 50px; margin: 0; text-align: center;\">+</p>","response":null,"trial_type":"html-keyboard-response","trial_index":160,"plugin_version":"2.1.0","time_elapsed":332603,"subject_id":"86827","group":"Group2"},{"task":"memory_phase","broad_category":"M","image_png":"M_Anthracite_01.png","image_id":177,"category_name":"Anthracite","category":12,"distinct_rating":4.23,"rt":null,"stimulus":"Stimuli_Rocks480/M_Anthracite_01.png","response":null,"trial_type":"image-keyboard-response","trial_index":161,"plugin_version":"2.1.0","time_elapsed":335106,"subject_id":"86827","group":"Group2"},{"rt":null,"stimulus":"<p style=\"font-size: 50px; margin: 0; text-align: center;\">+</p>","response":null,"trial_type":"html-keyboard-response","trial_index":162,"plugin_version":"2.1.0","time_elapsed":336108,"subject_id":"86827","group":"Group2"},{"task":"memory_phase","broad_category":"I","image_png":"I_Pumice_04.png","image_id":132,"category_name":"Pumice","category":9,"distinct_rating":3.48,"rt":null,"stimulus":"Stimuli_Rocks480/I_Pumice_04.png","response":null,"trial_type":"image-keyboard-response","trial_index":163,"plugin_version":"2.1.0","time_elapsed":338611,"subject_id":"86827","group":"Group2"},{"rt":null,"stimulus":"<p style=\"font-size: 50px; margin: 0; text-align: center;\">+</p>","response":null,"trial_type":"html-keyboard-response","trial_index":164,"plugin_version":"2.1.0","time_elapsed":339613,"subject_id":"86827","group":"Group2"},{"task":"memory_phase","broad_category":"S","image_png":"S_Conglomerate_04.png","image_id":372,"category_name":"Conglomerate","category":24,"distinct_rating":5.91,"rt":null,"stimulus":"Stimuli_Rocks480/S_Conglomerate_04.png","response":null,"trial_type":"image-keyboard-response","trial_index":165,"plugin_version":"2.1.0","time_elapsed":342116,"subject_id":"86827","group":"Group2"},{"rt":null,"stimulus":"<p style=\"font-size: 50px; margin: 0; text-align: center;\">+</p>","response":null,"trial_type":"html-keyboard-response","trial_index":166,"plugin_version":"2.1.0","time_elapsed":343119,"subject_id":"86827","group":"Group2"},{"task":"memory_phase","broad_category":"S","image_png":"S_Micrite_14.png","image_id":414,"category_name":"Micrite","category":26,"distinct_rating":2.42,"rt":null,"stimulus":"Stimuli_Rocks480/S_Micrite_14.png","response":null,"trial_type":"image-keyboard-response","trial_index":167,"plugin_version":"2.1.0","time_elapsed":345622,"subject_id":"86827","group":"Group2"},{"rt":null,"stimulus":"<p style=\"font-size: 50px; margin: 0; text-align: center;\">+</p>","response":null,"trial_type":"html-keyboard-response","trial_index":168,"plugin_version":"2.1.0","time_elapsed":346624,"subject_id":"86827","group":"Group2"},{"task":"memory_phase","broad_category":"I","image_png":"I_Obsidian_06.png","image_id":86,"category_name":"Obsidian","category":6,"distinct_rating":8.01,"rt":null,"stimulus":"Stimuli_Rocks480/I_Obsidian_06.png","response":null,"trial_type":"image-keyboard-response","trial_index":169,"plugin_version":"2.1.0","time_elapsed":349127,"subject_id":"86827","group":"Group2"},{"rt":null,"stimulus":"<p style=\"font-size: 50px; margin: 0; text-align: center;\">+</p>","response":null,"trial_type":"html-keyboard-response","trial_index":170,"plugin_version":"2.1.0","time_elapsed":350130,"subject_id":"86827","group":"Group2"},{"task":"memory_phase","broad_category":"I","image_png":"I_Pumice_06.png","image_id":134,"category_name":"Pumice","category":9,"distinct_rating":4.16,"rt":null,"stimulus":"Stimuli_Rocks480/I_Pumice_06.png","response":null,"trial_type":"image-keyboard-response","trial_index":171,"plugin_version":"2.1.0","time_elapsed":352633,"subject_id":"86827","group":"Group2"},{"rt":null,"stimulus":"<p style=\"font-size: 50px; margin: 0; text-align: center;\">+</p>","response":null,"trial_type":"html-keyboard-response","trial_index":172,"plugin_version":"2.1.0","time_elapsed":353636,"subject_id":"86827","group":"Group2"},{"task":"memory_phase","broad_category":"S","image_png":"S_Rock Gypsum_06.png","image_id":422,"category_name":"Rock Gypsum","category":27,"distinct_rating":2.61,"rt":null,"stimulus":"Stimuli_Rocks480/S_Rock Gypsum_06.png","response":null,"trial_type":"image-keyboard-response","trial_index":173,"plugin_version":"2.1.0","time_elapsed":356139,"subject_id":"86827","group":"Group2"},{"rt":null,"stimulus":"<p style=\"font-size: 50px; margin: 0; text-align: center;\">+</p>","response":null,"trial_type":"html-keyboard-response","trial_index":174,"plugin_version":"2.1.0","time_elapsed":357141,"subject_id":"86827","group":"Group2"},{"task":"memory_phase","broad_category":"S","image_png":"S_Chert_15.png","image_id":367,"category_name":"Chert","category":23,"distinct_rating":4.11,"rt":null,"stimulus":"Stimuli_Rocks480/S_Chert_15.png","response":null,"trial_type":"image-keyboard-response","trial_index":175,"plugin_version":"2.1.0","time_elapsed":359644,"subject_id":"86827","group":"Group2"},{"rt":null,"stimulus":"<p style=\"font-size: 50px; margin: 0; text-align: center;\">+</p>","response":null,"trial_type":"html-keyboard-response","trial_index":176,"plugin_version":"2.1.0","time_elapsed":360646,"subject_id":"86827","group":"Group2"},{"task":"memory_phase","broad_category":"M","image_png":"M_Marble_14.png","image_id":238,"category_name":"Marble","category":15,"distinct_rating":3.31,"rt":null,"stimulus":"Stimuli_Rocks480/M_Marble_14.png","response":null,"trial_type":"image-keyboard-response","trial_index":177,"plugin_version":"2.1.0","time_elapsed":363149,"subject_id":"86827","group":"Group2"},{"rt":null,"stimulus":"<p style=\"font-size: 50px; margin: 0; text-align: center;\">+</p>","response":null,"trial_type":"html-keyboard-response","trial_index":178,"plugin_version":"2.1.0","time_elapsed":364152,"subject_id":"86827","group":"Group2"},{"task":"memory_phase","broad_category":"S","image_png":"S_Micrite_06.png","image_id":406,"category_name":"Micrite","category":26,"distinct_rating":1.8,"rt":null,"stimulus":"Stimuli_Rocks480/S_Micrite_06.png","response":null,"trial_type":"image-keyboard-response","trial_index":179,"plugin_version":"2.1.0","time_elapsed":366655,"subject_id":"86827","group":"Group2"},{"rt":null,"stimulus":"<p style=\"font-size: 50px; margin: 0; text-align: center;\">+</p>","response":null,"trial_type":"html-keyboard-response","trial_index":180,"plugin_version":"2.1.0","time_elapsed":367657,"subject_id":"86827","group":"Group2"},{"task":"memory_phase","broad_category":"S","image_png":"S_Rock Salt_04.png","image_id":436,"category_name":"Rock Salt","category":28,"distinct_rating":7.89,"rt":null,"stimulus":"Stimuli_Rocks480/S_Rock Salt_04.png","response":null,"trial_type":"image-keyboard-response","trial_index":181,"plugin_version":"2.1.0","time_elapsed":370160,"subject_id":"86827","group":"Group2"},{"rt":null,"stimulus":"<p style=\"font-size: 50px; margin: 0; text-align: center;\">+</p>","response":null,"trial_type":"html-keyboard-response","trial_index":182,"plugin_version":"2.1.0","time_elapsed":371162,"subject_id":"86827","group":"Group2"},{"task":"memory_phase","broad_category":"M","image_png":"M_Slate_09.png","image_id":313,"category_name":"Slate","category":20,"distinct_rating":3.6,"rt":null,"stimulus":"Stimuli_Rocks480/M_Slate_09.png","response":null,"trial_type":"image-keyboard-response","trial_index":183,"plugin_version":"2.1.0","time_elapsed":373665,"subject_id":"86827","group":"Group2"},{"rt":null,"stimulus":"<p style=\"font-size: 50px; margin: 0; text-align: center;\">+</p>","response":null,"trial_type":"html-keyboard-response","trial_index":184,"plugin_version":"2.1.0","time_elapsed":374668,"subject_id":"86827","group":"Group2"},{"task":"memory_phase","broad_category":"M","image_png":"M_Gneiss_10.png","image_id":202,"category_name":"Gneiss","category":13,"distinct_rating":3.09,"rt":null,"stimulus":"Stimuli_Rocks480/M_Gneiss_10.png","response":null,"trial_type":"image-keyboard-response","trial_index":185,"plugin_version":"2.1.0","time_elapsed":377170,"subject_id":"86827","group":"Group2"},{"rt":null,"stimulus":"<p style=\"font-size: 50px; margin: 0; text-align: center;\">+</p>","response":null,"trial_type":"html-keyboard-response","trial_index":186,"plugin_version":"2.1.0","time_elapsed":378173,"subject_id":"86827","group":"Group2"},{"task":"memory_phase","broad_category":"M","image_png":"M_Gneiss_16.png","image_id":208,"category_name":"Gneiss","category":13,"distinct_rating":3.64,"rt":null,"stimulus":"Stimuli_Rocks480/M_Gneiss_16.png","response":null,"trial_type":"image-keyboard-response","trial_index":187,"plugin_version":"2.1.0","time_elapsed":380676,"subject_id":"86827","group":"Group2"},{"rt":null,"stimulus":"<p style=\"font-size: 50px; margin: 0; text-align: center;\">+</p>","response":null,"trial_type":"html-keyboard-response","trial_index":188,"plugin_version":"2.1.0","time_elapsed":381678,"subject_id":"86827","group":"Group2"},{"task":"memory_phase","broad_category":"I","image_png":"I_Peridotite_02.png","image_id":114,"category_name":"Peridotite","category":8,"distinct_rating":5.18,"rt":null,"stimulus":"Stimuli_Rocks480/I_Peridotite_02.png","response":null,"trial_type":"image-keyboard-response","trial_index":189,"plugin_version":"2.1.0","time_elapsed":384181,"subject_id":"86827","group":"Group2"},{"rt":null,"stimulus":"<p style=\"font-size: 50px; margin: 0; text-align: center;\">+</p>","response":null,"trial_type":"html-keyboard-response","trial_index":190,"plugin_version":"2.1.0","time_elapsed":385183,"subject_id":"86827","group":"Group2"},{"task":"memory_phase","broad_category":"S","image_png":"S_Shale_13.png","image_id":477,"category_name":"Shale","category":30,"distinct_rating":1.88,"rt":null,"stimulus":"Stimuli_Rocks480/S_Shale_13.png","response":null,"trial_type":"image-keyboard-response","trial_index":191,"plugin_version":"2.1.0","time_elapsed":387687,"subject_id":"86827","group":"Group2"},{"rt":null,"stimulus":"<p style=\"font-size: 50px; margin: 0; text-align: center;\">+</p>","response":null,"trial_type":"html-keyboard-response","trial_index":192,"plugin_version":"2.1.0","time_elapsed":388689,"subject_id":"86827","group":"Group2"},{"task":"memory_phase","broad_category":"I","image_png":"I_Rhyolite_09.png","image_id":153,"category_name":"Rhyolite","category":10,"distinct_rating":3.52,"rt":null,"stimulus":"Stimuli_Rocks480/I_Rhyolite_09.png","response":null,"trial_type":"image-keyboard-response","trial_index":193,"plugin_version":"2.1.0","time_elapsed":391197,"subject_id":"86827","group":"Group2"},{"rt":null,"stimulus":"<p style=\"font-size: 50px; margin: 0; text-align: center;\">+</p>","response":null,"trial_type":"html-keyboard-response","trial_index":194,"plugin_version":"2.1.0","time_elapsed":392199,"subject_id":"86827","group":"Group2"},{"task":"memory_phase","broad_category":"M","image_png":"M_Phyllite_04.png","image_id":260,"category_name":"Phyllite","category":17,"distinct_rating":4.37,"rt":null,"stimulus":"Stimuli_Rocks480/M_Phyllite_04.png","response":null,"trial_type":"image-keyboard-response","trial_index":195,"plugin_version":"2.1.0","time_elapsed":394702,"subject_id":"86827","group":"Group2"},{"rt":null,"stimulus":"<p style=\"font-size: 50px; margin: 0; text-align: center;\">+</p>","response":null,"trial_type":"html-keyboard-response","trial_index":196,"plugin_version":"2.1.0","time_elapsed":395705,"subject_id":"86827","group":"Group2"},{"task":"memory_phase","broad_category":"S","image_png":"S_Shale_16.png","image_id":480,"category_name":"Shale","category":30,"distinct_rating":2.31,"rt":null,"stimulus":"Stimuli_Rocks480/S_Shale_16.png","response":null,"trial_type":"image-keyboard-response","trial_index":197,"plugin_version":"2.1.0","time_elapsed":398209,"subject_id":"86827","group":"Group2"},{"rt":9019,"stimulus":"<p style=\"font-size: 35px;\">Press SPACE to continue study phase</p>","response":" ","trial_type":"html-keyboard-response","trial_index":198,"plugin_version":"2.1.0","time_elapsed":407229,"subject_id":"86827","group":"Group2"},{"rt":null,"stimulus":"<p style=\"font-size: 50px; margin: 0; text-align: center;\">+</p>","response":null,"trial_type":"html-keyboard-response","trial_index":199,"plugin_version":"2.1.0","time_elapsed":408231,"subject_id":"86827","group":"Group2"},{"task":"memory_phase","broad_category":"S","image_png":"S_Rock Salt_07.png","image_id":439,"category_name":"Rock Salt","category":28,"distinct_rating":6.66,"rt":null,"stimulus":"Stimuli_Rocks480/S_Rock Salt_07.png","response":null,"trial_type":"image-keyboard-response","trial_index":200,"plugin_version":"2.1.0","time_elapsed":410735,"subject_id":"86827","group":"Group2"},{"rt":null,"stimulus":"<p style=\"font-size: 50px; margin: 0; text-align: center;\">+</p>","response":null,"trial_type":"html-keyboard-response","trial_index":201,"plugin_version":"2.1.0","time_elapsed":411737,"subject_id":"86827","group":"Group2"},{"task":"memory_phase","broad_category":"S","image_png":"S_Breccia_01.png","image_id":337,"category_name":"Breccia","category":22,"distinct_rating":7.35,"rt":null,"stimulus":"Stimuli_Rocks480/S_Breccia_01.png","response":null,"trial_type":"image-keyboard-response","trial_index":202,"plugin_version":"2.1.0","time_elapsed":414241,"subject_id":"86827","group":"Group2"},{"rt":null,"stimulus":"<p style=\"font-size: 50px; margin: 0; text-align: center;\">+</p>","response":null,"trial_type":"html-keyboard-response","trial_index":203,"plugin_version":"2.1.0","time_elapsed":415243,"subject_id":"86827","group":"Group2"},{"task":"memory_phase","broad_category":"M","image_png":"M_Phyllite_15.png","image_id":271,"category_name":"Phyllite","category":17,"distinct_rating":3.05,"rt":null,"stimulus":"Stimuli_Rocks480/M_Phyllite_15.png","response":null,"trial_type":"image-keyboard-response","trial_index":204,"plugin_version":"2.1.0","time_elapsed":417746,"subject_id":"86827","group":"Group2"},{"rt":null,"stimulus":"<p style=\"font-size: 50px; margin: 0; text-align: center;\">+</p>","response":null,"trial_type":"html-keyboard-response","trial_index":205,"plugin_version":"2.1.0","time_elapsed":418749,"subject_id":"86827","group":"Group2"},{"task":"memory_phase","broad_category":"I","image_png":"I_Rhyolite_06.png","image_id":150,"category_name":"Rhyolite","category":10,"distinct_rating":5,"rt":null,"stimulus":"Stimuli_Rocks480/I_Rhyolite_06.png","response":null,"trial_type":"image-keyboard-response","trial_index":206,"plugin_version":"2.1.0","time_elapsed":421252,"subject_id":"86827","group":"Group2"},{"rt":null,"stimulus":"<p style=\"font-size: 50px; margin: 0; text-align: center;\">+</p>","response":null,"trial_type":"html-keyboard-response","trial_index":207,"plugin_version":"2.1.0","time_elapsed":422255,"subject_id":"86827","group":"Group2"},{"task":"memory_phase","broad_category":"I","image_png":"I_Basalt_14.png","image_id":30,"category_name":"Basalt","category":2,"distinct_rating":4,"rt":null,"stimulus":"Stimuli_Rocks480/I_Basalt_14.png","response":null,"trial_type":"image-keyboard-response","trial_index":208,"plugin_version":"2.1.0","time_elapsed":424759,"subject_id":"86827","group":"Group2"},{"rt":null,"stimulus":"<p style=\"font-size: 50px; margin: 0; text-align: center;\">+</p>","response":null,"trial_type":"html-keyboard-response","trial_index":209,"plugin_version":"2.1.0","time_elapsed":425761,"subject_id":"86827","group":"Group2"},{"task":"memory_phase","broad_category":"S","image_png":"S_Shale_09.png","image_id":473,"category_name":"Shale","category":30,"distinct_rating":3.7,"rt":null,"stimulus":"Stimuli_Rocks480/S_Shale_09.png","response":null,"trial_type":"image-keyboard-response","trial_index":210,"plugin_version":"2.1.0","time_elapsed":428265,"subject_id":"86827","group":"Group2"},{"rt":null,"stimulus":"<p style=\"font-size: 50px; margin: 0; text-align: center;\">+</p>","response":null,"trial_type":"html-keyboard-response","trial_index":211,"plugin_version":"2.1.0","time_elapsed":429267,"subject_id":"86827","group":"Group2"},{"task":"memory_phase","broad_category":"S","image_png":"S_Conglomerate_08.png","image_id":376,"category_name":"Conglomerate","category":24,"distinct_rating":4.83,"rt":null,"stimulus":"Stimuli_Rocks480/S_Conglomerate_08.png","response":null,"trial_type":"image-keyboard-response","trial_index":212,"plugin_version":"2.1.0","time_elapsed":431770,"subject_id":"86827","group":"Group2"},{"rt":null,"stimulus":"<p style=\"font-size: 50px; margin: 0; text-align: center;\">+</p>","response":null,"trial_type":"html-keyboard-response","trial_index":213,"plugin_version":"2.1.0","time_elapsed":432772,"subject_id":"86827","group":"Group2"},{"task":"memory_phase","broad_category":"M","image_png":"M_Migmatite_05.png","image_id":245,"category_name":"Migmatite","category":16,"distinct_rating":4.03,"rt":null,"stimulus":"Stimuli_Rocks480/M_Migmatite_05.png","response":null,"trial_type":"image-keyboard-response","trial_index":214,"plugin_version":"2.1.0","time_elapsed":435275,"subject_id":"86827","group":"Group2"},{"rt":null,"stimulus":"<p style=\"font-size: 50px; margin: 0; text-align: center;\">+</p>","response":null,"trial_type":"html-keyboard-response","trial_index":215,"plugin_version":"2.1.0","time_elapsed":436277,"subject_id":"86827","group":"Group2"},{"task":"memory_phase","broad_category":"S","image_png":"S_Chert_11.png","image_id":363,"category_name":"Chert","category":23,"distinct_rating":7.12,"rt":null,"stimulus":"Stimuli_Rocks480/S_Chert_11.png","response":null,"trial_type":"image-keyboard-response","trial_index":216,"plugin_version":"2.1.0","time_elapsed":438780,"subject_id":"86827","group":"Group2"},{"rt":null,"stimulus":"<p style=\"font-size: 50px; margin: 0; text-align: center;\">+</p>","response":null,"trial_type":"html-keyboard-response","trial_index":217,"plugin_version":"2.1.0","time_elapsed":439782,"subject_id":"86827","group":"Group2"},{"task":"memory_phase","broad_category":"S","image_png":"S_Breccia_10.png","image_id":346,"category_name":"Breccia","category":22,"distinct_rating":5,"rt":null,"stimulus":"Stimuli_Rocks480/S_Breccia_10.png","response":null,"trial_type":"image-keyboard-response","trial_index":218,"plugin_version":"2.1.0","time_elapsed":442286,"subject_id":"86827","group":"Group2"},{"rt":null,"stimulus":"<p style=\"font-size: 50px; margin: 0; text-align: center;\">+</p>","response":null,"trial_type":"html-keyboard-response","trial_index":219,"plugin_version":"2.1.0","time_elapsed":443289,"subject_id":"86827","group":"Group2"},{"task":"memory_phase","broad_category":"I","image_png":"I_Basalt_05.png","image_id":21,"category_name":"Basalt","category":2,"distinct_rating":2.55,"rt":null,"stimulus":"Stimuli_Rocks480/I_Basalt_05.png","response":null,"trial_type":"image-keyboard-response","trial_index":220,"plugin_version":"2.1.0","time_elapsed":445792,"subject_id":"86827","group":"Group2"},{"rt":null,"stimulus":"<p style=\"font-size: 50px; margin: 0; text-align: center;\">+</p>","response":null,"trial_type":"html-keyboard-response","trial_index":221,"plugin_version":"2.1.0","time_elapsed":446794,"subject_id":"86827","group":"Group2"},{"task":"memory_phase","broad_category":"I","image_png":"I_Granite_02.png","image_id":66,"category_name":"Granite","category":5,"distinct_rating":3.29,"rt":null,"stimulus":"Stimuli_Rocks480/I_Granite_02.png","response":null,"trial_type":"image-keyboard-response","trial_index":222,"plugin_version":"2.1.0","time_elapsed":449298,"subject_id":"86827","group":"Group2"},{"rt":null,"stimulus":"<p style=\"font-size: 50px; margin: 0; text-align: center;\">+</p>","response":null,"trial_type":"html-keyboard-response","trial_index":223,"plugin_version":"2.1.0","time_elapsed":450300,"subject_id":"86827","group":"Group2"},{"task":"memory_phase","broad_category":"I","image_png":"I_Pegmatite_14.png","image_id":110,"category_name":"Pegmatite","category":7,"distinct_rating":4.79,"rt":null,"stimulus":"Stimuli_Rocks480/I_Pegmatite_14.png","response":null,"trial_type":"image-keyboard-response","trial_index":224,"plugin_version":"2.1.0","time_elapsed":452803,"subject_id":"86827","group":"Group2"},{"rt":null,"stimulus":"<p style=\"font-size: 50px; margin: 0; text-align: center;\">+</p>","response":null,"trial_type":"html-keyboard-response","trial_index":225,"plugin_version":"2.1.0","time_elapsed":453805,"subject_id":"86827","group":"Group2"},{"task":"memory_phase","broad_category":"I","image_png":"I_Pegmatite_08.png","image_id":104,"category_name":"Pegmatite","category":7,"distinct_rating":7.03,"rt":null,"stimulus":"Stimuli_Rocks480/I_Pegmatite_08.png","response":null,"trial_type":"image-keyboard-response","trial_index":226,"plugin_version":"2.1.0","time_elapsed":456308,"subject_id":"86827","group":"Group2"},{"rt":null,"stimulus":"<p style=\"font-size: 50px; margin: 0; text-align: center;\">+</p>","response":null,"trial_type":"html-keyboard-response","trial_index":227,"plugin_version":"2.1.0","time_elapsed":457311,"subject_id":"86827","group":"Group2"},{"task":"memory_phase","broad_category":"S","image_png":"S_Conglomerate_01.png","image_id":369,"category_name":"Conglomerate","category":24,"distinct_rating":6.23,"rt":null,"stimulus":"Stimuli_Rocks480/S_Conglomerate_01.png","response":null,"trial_type":"image-keyboard-response","trial_index":228,"plugin_version":"2.1.0","time_elapsed":459814,"subject_id":"86827","group":"Group2"},{"rt":null,"stimulus":"<p style=\"font-size: 50px; margin: 0; text-align: center;\">+</p>","response":null,"trial_type":"html-keyboard-response","trial_index":229,"plugin_version":"2.1.0","time_elapsed":460815,"subject_id":"86827","group":"Group2"},{"task":"memory_phase","broad_category":"I","image_png":"I_Gabbro_15.png","image_id":63,"category_name":"Gabbro","category":4,"distinct_rating":3.37,"rt":null,"stimulus":"Stimuli_Rocks480/I_Gabbro_15.png","response":null,"trial_type":"image-keyboard-response","trial_index":230,"plugin_version":"2.1.0","time_elapsed":463319,"subject_id":"86827","group":"Group2"},{"rt":null,"stimulus":"<p style=\"font-size: 50px; margin: 0; text-align: center;\">+</p>","response":null,"trial_type":"html-keyboard-response","trial_index":231,"plugin_version":"2.1.0","time_elapsed":464322,"subject_id":"86827","group":"Group2"},{"task":"memory_phase","broad_category":"I","image_png":"I_Andesite_10.png","image_id":10,"category_name":"Andesite","category":1,"distinct_rating":3.15,"rt":null,"stimulus":"Stimuli_Rocks480/I_Andesite_10.png","response":null,"trial_type":"image-keyboard-response","trial_index":232,"plugin_version":"2.1.0","time_elapsed":466824,"subject_id":"86827","group":"Group2"},{"rt":null,"stimulus":"<p style=\"font-size: 50px; margin: 0; text-align: center;\">+</p>","response":null,"trial_type":"html-keyboard-response","trial_index":233,"plugin_version":"2.1.0","time_elapsed":467826,"subject_id":"86827","group":"Group2"},{"task":"memory_phase","broad_category":"M","image_png":"M_Anthracite_08.png","image_id":184,"category_name":"Anthracite","category":12,"distinct_rating":4.77,"rt":null,"stimulus":"Stimuli_Rocks480/M_Anthracite_08.png","response":null,"trial_type":"image-keyboard-response","trial_index":234,"plugin_version":"2.1.0","time_elapsed":470330,"subject_id":"86827","group":"Group2"},{"rt":null,"stimulus":"<p style=\"font-size: 50px; margin: 0; text-align: center;\">+</p>","response":null,"trial_type":"html-keyboard-response","trial_index":235,"plugin_version":"2.1.0","time_elapsed":471332,"subject_id":"86827","group":"Group2"},{"task":"memory_phase","broad_category":"S","image_png":"S_Bituminous Coal_16.png","image_id":336,"category_name":"Bituminous Coal","category":21,"distinct_rating":4.3,"rt":null,"stimulus":"Stimuli_Rocks480/S_Bituminous Coal_16.png","response":null,"trial_type":"image-keyboard-response","trial_index":236,"plugin_version":"2.1.0","time_elapsed":473836,"subject_id":"86827","group":"Group2"},{"rt":null,"stimulus":"<p style=\"font-size: 50px; margin: 0; text-align: center;\">+</p>","response":null,"trial_type":"html-keyboard-response","trial_index":237,"plugin_version":"2.1.0","time_elapsed":474838,"subject_id":"86827","group":"Group2"},{"task":"memory_phase","broad_category":"S","image_png":"S_Breccia_09.png","image_id":345,"category_name":"Breccia","category":22,"distinct_rating":6.7,"rt":null,"stimulus":"Stimuli_Rocks480/S_Breccia_09.png","response":null,"trial_type":"image-keyboard-response","trial_index":238,"plugin_version":"2.1.0","time_elapsed":477340,"subject_id":"86827","group":"Group2"},{"rt":null,"stimulus":"<p style=\"font-size: 50px; margin: 0; text-align: center;\">+</p>","response":null,"trial_type":"html-keyboard-response","trial_index":239,"plugin_version":"2.1.0","time_elapsed":478343,"subject_id":"86827","group":"Group2"},{"task":"memory_phase","broad_category":"M","image_png":"M_Migmatite_10.png","image_id":250,"category_name":"Migmatite","category":16,"distinct_rating":3.3,"rt":null,"stimulus":"Stimuli_Rocks480/M_Migmatite_10.png","response":null,"trial_type":"image-keyboard-response","trial_index":240,"plugin_version":"2.1.0","time_elapsed":480846,"subject_id":"86827","group":"Group2"},{"rt":null,"stimulus":"<p style=\"font-size: 50px; margin: 0; text-align: center;\">+</p>","response":null,"trial_type":"html-keyboard-response","trial_index":241,"plugin_version":"2.1.0","time_elapsed":481849,"subject_id":"86827","group":"Group2"},{"task":"memory_phase","broad_category":"I","image_png":"I_Obsidian_14.png","image_id":94,"category_name":"Obsidian","category":6,"distinct_rating":5.17,"rt":null,"stimulus":"Stimuli_Rocks480/I_Obsidian_14.png","response":null,"trial_type":"image-keyboard-response","trial_index":242,"plugin_version":"2.1.0","time_elapsed":484352,"subject_id":"86827","group":"Group2"},{"rt":null,"stimulus":"<p style=\"font-size: 50px; margin: 0; text-align: center;\">+</p>","response":null,"trial_type":"html-keyboard-response","trial_index":243,"plugin_version":"2.1.0","time_elapsed":485356,"subject_id":"86827","group":"Group2"},{"task":"memory_phase","broad_category":"S","image_png":"S_Breccia_05.png","image_id":341,"category_name":"Breccia","category":22,"distinct_rating":6.25,"rt":null,"stimulus":"Stimuli_Rocks480/S_Breccia_05.png","response":null,"trial_type":"image-keyboard-response","trial_index":244,"plugin_version":"2.1.0","time_elapsed":487859,"subject_id":"86827","group":"Group2"},{"rt":null,"stimulus":"<p style=\"font-size: 50px; margin: 0; text-align: center;\">+</p>","response":null,"trial_type":"html-keyboard-response","trial_index":245,"plugin_version":"2.1.0","time_elapsed":488862,"subject_id":"86827","group":"Group2"},{"task":"memory_phase","broad_category":"S","image_png":"S_Sandstone_10.png","image_id":458,"category_name":"Sandstone","category":29,"distinct_rating":2.05,"rt":null,"stimulus":"Stimuli_Rocks480/S_Sandstone_10.png","response":null,"trial_type":"image-keyboard-response","trial_index":246,"plugin_version":"2.1.0","time_elapsed":491364,"subject_id":"86827","group":"Group2"},{"rt":null,"stimulus":"<p style=\"font-size: 50px; margin: 0; text-align: center;\">+</p>","response":null,"trial_type":"html-keyboard-response","trial_index":247,"plugin_version":"2.1.0","time_elapsed":492367,"subject_id":"86827","group":"Group2"},{"task":"memory_phase","broad_category":"M","image_png":"M_Hornfels_16.png","image_id":224,"category_name":"Hornfels","category":14,"distinct_rating":2.84,"rt":null,"stimulus":"Stimuli_Rocks480/M_Hornfels_16.png","response":null,"trial_type":"image-keyboard-response","trial_index":248,"plugin_version":"2.1.0","time_elapsed":494870,"subject_id":"86827","group":"Group2"},{"rt":null,"stimulus":"<p style=\"font-size: 50px; margin: 0; text-align: center;\">+</p>","response":null,"trial_type":"html-keyboard-response","trial_index":249,"plugin_version":"2.1.0","time_elapsed":495872,"subject_id":"86827","group":"Group2"},{"task":"memory_phase","broad_category":"S","image_png":"S_Micrite_05.png","image_id":405,"category_name":"Micrite","category":26,"distinct_rating":8.21,"rt":null,"stimulus":"Stimuli_Rocks480/S_Micrite_05.png","response":null,"trial_type":"image-keyboard-response","trial_index":250,"plugin_version":"2.1.0","time_elapsed":498376,"subject_id":"86827","group":"Group2"},{"rt":null,"stimulus":"<p style=\"font-size: 50px; margin: 0; text-align: center;\">+</p>","response":null,"trial_type":"html-keyboard-response","trial_index":251,"plugin_version":"2.1.0","time_elapsed":499378,"subject_id":"86827","group":"Group2"},{"task":"memory_phase","broad_category":"I","image_png":"I_Andesite_12.png","image_id":12,"category_name":"Andesite","category":1,"distinct_rating":3.75,"rt":null,"stimulus":"Stimuli_Rocks480/I_Andesite_12.png","response":null,"trial_type":"image-keyboard-response","trial_index":252,"plugin_version":"2.1.0","time_elapsed":501882,"subject_id":"86827","group":"Group2"},{"rt":null,"stimulus":"<p style=\"font-size: 50px; margin: 0; text-align: center;\">+</p>","response":null,"trial_type":"html-keyboard-response","trial_index":253,"plugin_version":"2.1.0","time_elapsed":502883,"subject_id":"86827","group":"Group2"},{"task":"memory_phase","broad_category":"I","image_png":"I_Peridotite_14.png","image_id":126,"category_name":"Peridotite","category":8,"distinct_rating":3.64,"rt":null,"stimulus":"Stimuli_Rocks480/I_Peridotite_14.png","response":null,"trial_type":"image-keyboard-response","trial_index":254,"plugin_version":"2.1.0","time_elapsed":505387,"subject_id":"86827","group":"Group2"},{"rt":null,"stimulus":"<p style=\"font-size: 50px; margin: 0; text-align: center;\">+</p>","response":null,"trial_type":"html-keyboard-response","trial_index":255,"plugin_version":"2.1.0","time_elapsed":506389,"subject_id":"86827","group":"Group2"},{"task":"memory_phase","broad_category":"I","image_png":"I_Peridotite_07.png","image_id":119,"category_name":"Peridotite","category":8,"distinct_rating":3.46,"rt":null,"stimulus":"Stimuli_Rocks480/I_Peridotite_07.png","response":null,"trial_type":"image-keyboard-response","trial_index":256,"plugin_version":"2.1.0","time_elapsed":508893,"subject_id":"86827","group":"Group2"},{"rt":null,"stimulus":"<p style=\"font-size: 50px; margin: 0; text-align: center;\">+</p>","response":null,"trial_type":"html-keyboard-response","trial_index":257,"plugin_version":"2.1.0","time_elapsed":509895,"subject_id":"86827","group":"Group2"},{"task":"memory_phase","broad_category":"I","image_png":"I_Gabbro_16.png","image_id":64,"category_name":"Gabbro","category":4,"distinct_rating":2.52,"rt":null,"stimulus":"Stimuli_Rocks480/I_Gabbro_16.png","response":null,"trial_type":"image-keyboard-response","trial_index":258,"plugin_version":"2.1.0","time_elapsed":512398,"subject_id":"86827","group":"Group2"},{"rt":null,"stimulus":"<p style=\"font-size: 50px; margin: 0; text-align: center;\">+</p>","response":null,"trial_type":"html-keyboard-response","trial_index":259,"plugin_version":"2.1.0","time_elapsed":513400,"subject_id":"86827","group":"Group2"},{"task":"memory_phase","broad_category":"S","image_png":"S_Rock Salt_16.png","image_id":448,"category_name":"Rock Salt","category":28,"distinct_rating":6.23,"rt":null,"stimulus":"Stimuli_Rocks480/S_Rock Salt_16.png","response":null,"trial_type":"image-keyboard-response","trial_index":260,"plugin_version":"2.1.0","time_elapsed":515903,"subject_id":"86827","group":"Group2"},{"rt":null,"stimulus":"<p style=\"font-size: 50px; margin: 0; text-align: center;\">+</p>","response":null,"trial_type":"html-keyboard-response","trial_index":261,"plugin_version":"2.1.0","time_elapsed":516905,"subject_id":"86827","group":"Group2"},{"task":"memory_phase","broad_category":"I","image_png":"I_Andesite_03.png","image_id":3,"category_name":"Andesite","category":1,"distinct_rating":3.17,"rt":null,"stimulus":"Stimuli_Rocks480/I_Andesite_03.png","response":null,"trial_type":"image-keyboard-response","trial_index":262,"plugin_version":"2.1.0","time_elapsed":519409,"subject_id":"86827","group":"Group2"},{"rt":null,"stimulus":"<p style=\"font-size: 50px; margin: 0; text-align: center;\">+</p>","response":null,"trial_type":"html-keyboard-response","trial_index":263,"plugin_version":"2.1.0","time_elapsed":520411,"subject_id":"86827","group":"Group2"},{"task":"memory_phase","broad_category":"I","image_png":"I_Andesite_08.png","image_id":8,"category_name":"Andesite","category":1,"distinct_rating":1.95,"rt":null,"stimulus":"Stimuli_Rocks480/I_Andesite_08.png","response":null,"trial_type":"image-keyboard-response","trial_index":264,"plugin_version":"2.1.0","time_elapsed":522914,"subject_id":"86827","group":"Group2"},{"rt":null,"stimulus":"<p style=\"font-size: 50px; margin: 0; text-align: center;\">+</p>","response":null,"trial_type":"html-keyboard-response","trial_index":265,"plugin_version":"2.1.0","time_elapsed":523916,"subject_id":"86827","group":"Group2"},{"task":"memory_phase","broad_category":"M","image_png":"M_Migmatite_09.png","image_id":249,"category_name":"Migmatite","category":16,"distinct_rating":3.84,"rt":null,"stimulus":"Stimuli_Rocks480/M_Migmatite_09.png","response":null,"trial_type":"image-keyboard-response","trial_index":266,"plugin_version":"2.1.0","time_elapsed":526420,"subject_id":"86827","group":"Group2"},{"rt":null,"stimulus":"<p style=\"font-size: 50px; margin: 0; text-align: center;\">+</p>","response":null,"trial_type":"html-keyboard-response","trial_index":267,"plugin_version":"2.1.0","time_elapsed":527422,"subject_id":"86827","group":"Group2"},{"task":"memory_phase","broad_category":"M","image_png":"M_Quartzite_14.png","image_id":286,"category_name":"Quartzite","category":18,"distinct_rating":3.3,"rt":null,"stimulus":"Stimuli_Rocks480/M_Quartzite_14.png","response":null,"trial_type":"image-keyboard-response","trial_index":268,"plugin_version":"2.1.0","time_elapsed":529925,"subject_id":"86827","group":"Group2"},{"rt":null,"stimulus":"<p style=\"font-size: 50px; margin: 0; text-align: center;\">+</p>","response":null,"trial_type":"html-keyboard-response","trial_index":269,"plugin_version":"2.1.0","time_elapsed":530927,"subject_id":"86827","group":"Group2"},{"task":"memory_phase","broad_category":"S","image_png":"S_Micrite_02.png","image_id":402,"category_name":"Micrite","category":26,"distinct_rating":2.77,"rt":null,"stimulus":"Stimuli_Rocks480/S_Micrite_02.png","response":null,"trial_type":"image-keyboard-response","trial_index":270,"plugin_version":"2.1.0","time_elapsed":533431,"subject_id":"86827","group":"Group2"},{"rt":null,"stimulus":"<p style=\"font-size: 50px; margin: 0; text-align: center;\">+</p>","response":null,"trial_type":"html-keyboard-response","trial_index":271,"plugin_version":"2.1.0","time_elapsed":534434,"subject_id":"86827","group":"Group2"},{"task":"memory_phase","broad_category":"I","image_png":"I_Peridotite_03.png","image_id":115,"category_name":"Peridotite","category":8,"distinct_rating":5.71,"rt":null,"stimulus":"Stimuli_Rocks480/I_Peridotite_03.png","response":null,"trial_type":"image-keyboard-response","trial_index":272,"plugin_version":"2.1.0","time_elapsed":536938,"subject_id":"86827","group":"Group2"},{"rt":null,"stimulus":"<p style=\"font-size: 50px; margin: 0; text-align: center;\">+</p>","response":null,"trial_type":"html-keyboard-response","trial_index":273,"plugin_version":"2.1.0","time_elapsed":537939,"subject_id":"86827","group":"Group2"},{"task":"memory_phase","broad_category":"S","image_png":"S_Sandstone_08.png","image_id":456,"category_name":"Sandstone","category":29,"distinct_rating":1.5,"rt":null,"stimulus":"Stimuli_Rocks480/S_Sandstone_08.png","response":null,"trial_type":"image-keyboard-response","trial_index":274,"plugin_version":"2.1.0","time_elapsed":540442,"subject_id":"86827","group":"Group2"},{"rt":null,"stimulus":"<p style=\"font-size: 50px; margin: 0; text-align: center;\">+</p>","response":null,"trial_type":"html-keyboard-response","trial_index":275,"plugin_version":"2.1.0","time_elapsed":541443,"subject_id":"86827","group":"Group2"},{"task":"memory_phase","broad_category":"S","image_png":"S_Sandstone_11.png","image_id":459,"category_name":"Sandstone","category":29,"distinct_rating":1.82,"rt":null,"stimulus":"Stimuli_Rocks480/S_Sandstone_11.png","response":null,"trial_type":"image-keyboard-response","trial_index":276,"plugin_version":"2.1.0","time_elapsed":543947,"subject_id":"86827","group":"Group2"},{"rt":null,"stimulus":"<p style=\"font-size: 50px; margin: 0; text-align: center;\">+</p>","response":null,"trial_type":"html-keyboard-response","trial_index":277,"plugin_version":"2.1.0","time_elapsed":544950,"subject_id":"86827","group":"Group2"},{"task":"memory_phase","broad_category":"M","image_png":"M_Marble_04.png","image_id":228,"category_name":"Marble","category":15,"distinct_rating":3.15,"rt":null,"stimulus":"Stimuli_Rocks480/M_Marble_04.png","response":null,"trial_type":"image-keyboard-response","trial_index":278,"plugin_version":"2.1.0","time_elapsed":547452,"subject_id":"86827","group":"Group2"},{"rt":null,"stimulus":"<p style=\"font-size: 50px; margin: 0; text-align: center;\">+</p>","response":null,"trial_type":"html-keyboard-response","trial_index":279,"plugin_version":"2.1.0","time_elapsed":548455,"subject_id":"86827","group":"Group2"},{"task":"memory_phase","broad_category":"S","image_png":"S_Breccia_13.png","image_id":349,"category_name":"Breccia","category":22,"distinct_rating":5.56,"rt":null,"stimulus":"Stimuli_Rocks480/S_Breccia_13.png","response":null,"trial_type":"image-keyboard-response","trial_index":280,"plugin_version":"2.1.0","time_elapsed":550958,"subject_id":"86827","group":"Group2"},{"rt":null,"stimulus":"<p style=\"font-size: 50px; margin: 0; text-align: center;\">+</p>","response":null,"trial_type":"html-keyboard-response","trial_index":281,"plugin_version":"2.1.0","time_elapsed":551960,"subject_id":"86827","group":"Group2"},{"task":"memory_phase","broad_category":"M","image_png":"M_Hornfels_06.png","image_id":214,"category_name":"Hornfels","category":14,"distinct_rating":2.66,"rt":null,"stimulus":"Stimuli_Rocks480/M_Hornfels_06.png","response":null,"trial_type":"image-keyboard-response","trial_index":282,"plugin_version":"2.1.0","time_elapsed":554464,"subject_id":"86827","group":"Group2"},{"rt":null,"stimulus":"<p style=\"font-size: 50px; margin: 0; text-align: center;\">+</p>","response":null,"trial_type":"html-keyboard-response","trial_index":283,"plugin_version":"2.1.0","time_elapsed":555466,"subject_id":"86827","group":"Group2"},{"task":"memory_phase","broad_category":"M","image_png":"M_Marble_10.png","image_id":234,"category_name":"Marble","category":15,"distinct_rating":4.13,"rt":null,"stimulus":"Stimuli_Rocks480/M_Marble_10.png","response":null,"trial_type":"image-keyboard-response","trial_index":284,"plugin_version":"2.1.0","time_elapsed":557969,"subject_id":"86827","group":"Group2"},{"rt":null,"stimulus":"<p style=\"font-size: 50px; margin: 0; text-align: center;\">+</p>","response":null,"trial_type":"html-keyboard-response","trial_index":285,"plugin_version":"2.1.0","time_elapsed":558970,"subject_id":"86827","group":"Group2"},{"task":"memory_phase","broad_category":"I","image_png":"I_Peridotite_13.png","image_id":125,"category_name":"Peridotite","category":8,"distinct_rating":7.28,"rt":null,"stimulus":"Stimuli_Rocks480/I_Peridotite_13.png","response":null,"trial_type":"image-keyboard-response","trial_index":286,"plugin_version":"2.1.0","time_elapsed":561474,"subject_id":"86827","group":"Group2"},{"rt":null,"stimulus":"<p style=\"font-size: 50px; margin: 0; text-align: center;\">+</p>","response":null,"trial_type":"html-keyboard-response","trial_index":287,"plugin_version":"2.1.0","time_elapsed":562475,"subject_id":"86827","group":"Group2"},{"task":"memory_phase","broad_category":"S","image_png":"S_Sandstone_16.png","image_id":464,"category_name":"Sandstone","category":29,"distinct_rating":1.93,"rt":null,"stimulus":"Stimuli_Rocks480/S_Sandstone_16.png","response":null,"trial_type":"image-keyboard-response","trial_index":288,"plugin_version":"2.1.0","time_elapsed":564980,"subject_id":"86827","group":"Group2"},{"rt":null,"stimulus":"<p style=\"font-size: 50px; margin: 0; text-align: center;\">+</p>","response":null,"trial_type":"html-keyboard-response","trial_index":289,"plugin_version":"2.1.0","time_elapsed":565983,"subject_id":"86827","group":"Group2"},{"task":"memory_phase","broad_category":"S","image_png":"S_Rock Gypsum_15.png","image_id":431,"category_name":"Rock Gypsum","category":27,"distinct_rating":6.11,"rt":null,"stimulus":"Stimuli_Rocks480/S_Rock Gypsum_15.png","response":null,"trial_type":"image-keyboard-response","trial_index":290,"plugin_version":"2.1.0","time_elapsed":568487,"subject_id":"86827","group":"Group2"},{"rt":null,"stimulus":"<p style=\"font-size: 50px; margin: 0; text-align: center;\">+</p>","response":null,"trial_type":"html-keyboard-response","trial_index":291,"plugin_version":"2.1.0","time_elapsed":569489,"subject_id":"86827","group":"Group2"},{"task":"memory_phase","broad_category":"I","image_png":"I_Basalt_12.png","image_id":28,"category_name":"Basalt","category":2,"distinct_rating":4.08,"rt":null,"stimulus":"Stimuli_Rocks480/I_Basalt_12.png","response":null,"trial_type":"image-keyboard-response","trial_index":292,"plugin_version":"2.1.0","time_elapsed":571992,"subject_id":"86827","group":"Group2"},{"rt":null,"stimulus":"<p style=\"font-size: 50px; margin: 0; text-align: center;\">+</p>","response":null,"trial_type":"html-keyboard-response","trial_index":293,"plugin_version":"2.1.0","time_elapsed":572995,"subject_id":"86827","group":"Group2"},{"task":"memory_phase","broad_category":"M","image_png":"M_Quartzite_13.png","image_id":285,"category_name":"Quartzite","category":18,"distinct_rating":2.27,"rt":null,"stimulus":"Stimuli_Rocks480/M_Quartzite_13.png","response":null,"trial_type":"image-keyboard-response","trial_index":294,"plugin_version":"2.1.0","time_elapsed":575497,"subject_id":"86827","group":"Group2"},{"rt":5716,"stimulus":"<p style=\"font-size: 35px;\">Press SPACE to continue study phase</p>","response":" ","trial_type":"html-keyboard-response","trial_index":295,"plugin_version":"2.1.0","time_elapsed":581214,"subject_id":"86827","group":"Group2"},{"rt":null,"stimulus":"<p style=\"font-size: 50px; margin: 0; text-align: center;\">+</p>","response":null,"trial_type":"html-keyboard-response","trial_index":296,"plugin_version":"2.1.0","time_elapsed":582216,"subject_id":"86827","group":"Group2"},{"task":"memory_phase","broad_category":"S","image_png":"S_Rock Salt_01.png","image_id":433,"category_name":"Rock Salt","category":28,"distinct_rating":7.18,"rt":null,"stimulus":"Stimuli_Rocks480/S_Rock Salt_01.png","response":null,"trial_type":"image-keyboard-response","trial_index":297,"plugin_version":"2.1.0","time_elapsed":584719,"subject_id":"86827","group":"Group2"},{"rt":null,"stimulus":"<p style=\"font-size: 50px; margin: 0; text-align: center;\">+</p>","response":null,"trial_type":"html-keyboard-response","trial_index":298,"plugin_version":"2.1.0","time_elapsed":585722,"subject_id":"86827","group":"Group2"},{"task":"memory_phase","broad_category":"S","image_png":"S_Conglomerate_14.png","image_id":382,"category_name":"Conglomerate","category":24,"distinct_rating":6.86,"rt":null,"stimulus":"Stimuli_Rocks480/S_Conglomerate_14.png","response":null,"trial_type":"image-keyboard-response","trial_index":299,"plugin_version":"2.1.0","time_elapsed":588225,"subject_id":"86827","group":"Group2"},{"rt":null,"stimulus":"<p style=\"font-size: 50px; margin: 0; text-align: center;\">+</p>","response":null,"trial_type":"html-keyboard-response","trial_index":300,"plugin_version":"2.1.0","time_elapsed":589228,"subject_id":"86827","group":"Group2"},{"task":"memory_phase","broad_category":"I","image_png":"I_Rhyolite_11.png","image_id":155,"category_name":"Rhyolite","category":10,"distinct_rating":1.73,"rt":null,"stimulus":"Stimuli_Rocks480/I_Rhyolite_11.png","response":null,"trial_type":"image-keyboard-response","trial_index":301,"plugin_version":"2.1.0","time_elapsed":591731,"subject_id":"86827","group":"Group2"},{"rt":null,"stimulus":"<p style=\"font-size: 50px; margin: 0; text-align: center;\">+</p>","response":null,"trial_type":"html-keyboard-response","trial_index":302,"plugin_version":"2.1.0","time_elapsed":592733,"subject_id":"86827","group":"Group2"},{"task":"memory_phase","broad_category":"I","image_png":"I_Pumice_14.png","image_id":142,"category_name":"Pumice","category":9,"distinct_rating":3.22,"rt":null,"stimulus":"Stimuli_Rocks480/I_Pumice_14.png","response":null,"trial_type":"image-keyboard-response","trial_index":303,"plugin_version":"2.1.0","time_elapsed":595236,"subject_id":"86827","group":"Group2"},{"rt":null,"stimulus":"<p style=\"font-size: 50px; margin: 0; text-align: center;\">+</p>","response":null,"trial_type":"html-keyboard-response","trial_index":304,"plugin_version":"2.1.0","time_elapsed":596239,"subject_id":"86827","group":"Group2"},{"task":"memory_phase","broad_category":"S","image_png":"S_Bituminous Coal_12.png","image_id":332,"category_name":"Bituminous Coal","category":21,"distinct_rating":3.5,"rt":null,"stimulus":"Stimuli_Rocks480/S_Bituminous Coal_12.png","response":null,"trial_type":"image-keyboard-response","trial_index":305,"plugin_version":"2.1.0","time_elapsed":598742,"subject_id":"86827","group":"Group2"},{"rt":null,"stimulus":"<p style=\"font-size: 50px; margin: 0; text-align: center;\">+</p>","response":null,"trial_type":"html-keyboard-response","trial_index":306,"plugin_version":"2.1.0","time_elapsed":599744,"subject_id":"86827","group":"Group2"},{"task":"memory_phase","broad_category":"I","image_png":"I_Pumice_08.png","image_id":136,"category_name":"Pumice","category":9,"distinct_rating":3.1,"rt":null,"stimulus":"Stimuli_Rocks480/I_Pumice_08.png","response":null,"trial_type":"image-keyboard-response","trial_index":307,"plugin_version":"2.1.0","time_elapsed":602247,"subject_id":"86827","group":"Group2"},{"rt":null,"stimulus":"<p style=\"font-size: 50px; margin: 0; text-align: center;\">+</p>","response":null,"trial_type":"html-keyboard-response","trial_index":308,"plugin_version":"2.1.0","time_elapsed":603250,"subject_id":"86827","group":"Group2"},{"task":"memory_phase","broad_category":"S","image_png":"S_Sandstone_14.png","image_id":462,"category_name":"Sandstone","category":29,"distinct_rating":2.57,"rt":null,"stimulus":"Stimuli_Rocks480/S_Sandstone_14.png","response":null,"trial_type":"image-keyboard-response","trial_index":309,"plugin_version":"2.1.0","time_elapsed":605753,"subject_id":"86827","group":"Group2"},{"rt":null,"stimulus":"<p style=\"font-size: 50px; margin: 0; text-align: center;\">+</p>","response":null,"trial_type":"html-keyboard-response","trial_index":310,"plugin_version":"2.1.0","time_elapsed":606756,"subject_id":"86827","group":"Group2"},{"task":"memory_phase","broad_category":"S","image_png":"S_Rock Salt_03.png","image_id":435,"category_name":"Rock Salt","category":28,"distinct_rating":4.83,"rt":null,"stimulus":"Stimuli_Rocks480/S_Rock Salt_03.png","response":null,"trial_type":"image-keyboard-response","trial_index":311,"plugin_version":"2.1.0","time_elapsed":609259,"subject_id":"86827","group":"Group2"},{"rt":null,"stimulus":"<p style=\"font-size: 50px; margin: 0; text-align: center;\">+</p>","response":null,"trial_type":"html-keyboard-response","trial_index":312,"plugin_version":"2.1.0","time_elapsed":610261,"subject_id":"86827","group":"Group2"},{"task":"memory_phase","broad_category":"S","image_png":"S_Conglomerate_06.png","image_id":374,"category_name":"Conglomerate","category":24,"distinct_rating":4.24,"rt":null,"stimulus":"Stimuli_Rocks480/S_Conglomerate_06.png","response":null,"trial_type":"image-keyboard-response","trial_index":313,"plugin_version":"2.1.0","time_elapsed":612763,"subject_id":"86827","group":"Group2"},{"rt":null,"stimulus":"<p style=\"font-size: 50px; margin: 0; text-align: center;\">+</p>","response":null,"trial_type":"html-keyboard-response","trial_index":314,"plugin_version":"2.1.0","time_elapsed":613765,"subject_id":"86827","group":"Group2"},{"task":"memory_phase","broad_category":"I","image_png":"I_Pegmatite_13.png","image_id":109,"category_name":"Pegmatite","category":7,"distinct_rating":5.15,"rt":null,"stimulus":"Stimuli_Rocks480/I_Pegmatite_13.png","response":null,"trial_type":"image-keyboard-response","trial_index":315,"plugin_version":"2.1.0","time_elapsed":616268,"subject_id":"86827","group":"Group2"},{"rt":null,"stimulus":"<p style=\"font-size: 50px; margin: 0; text-align: center;\">+</p>","response":null,"trial_type":"html-keyboard-response","trial_index":316,"plugin_version":"2.1.0","time_elapsed":617271,"subject_id":"86827","group":"Group2"},{"task":"memory_phase","broad_category":"S","image_png":"S_Rock Gypsum_14.png","image_id":430,"category_name":"Rock Gypsum","category":27,"distinct_rating":7.01,"rt":null,"stimulus":"Stimuli_Rocks480/S_Rock Gypsum_14.png","response":null,"trial_type":"image-keyboard-response","trial_index":317,"plugin_version":"2.1.0","time_elapsed":619774,"subject_id":"86827","group":"Group2"},{"rt":null,"stimulus":"<p style=\"font-size: 50px; margin: 0; text-align: center;\">+</p>","response":null,"trial_type":"html-keyboard-response","trial_index":318,"plugin_version":"2.1.0","time_elapsed":620776,"subject_id":"86827","group":"Group2"},{"task":"memory_phase","broad_category":"M","image_png":"M_Migmatite_13.png","image_id":253,"category_name":"Migmatite","category":16,"distinct_rating":5.01,"rt":null,"stimulus":"Stimuli_Rocks480/M_Migmatite_13.png","response":null,"trial_type":"image-keyboard-response","trial_index":319,"plugin_version":"2.1.0","time_elapsed":623279,"subject_id":"86827","group":"Group2"},{"rt":null,"stimulus":"<p style=\"font-size: 50px; margin: 0; text-align: center;\