[{"width":1512,"height":737,"webaudio":true,"browser":"chrome","browser_version":"139.0.0","mobile":false,"os":"Mac OS","fullscreen":true,"vsync_rate":120.63,"webcam":true,"microphone":true,"trial_type":"browser-check","trial_index":0,"plugin_version":"2.1.0","time_elapsed":508,"subject_id":"87136","group":"Group2"},{"success":true,"timeout":false,"failed_images":[],"failed_audio":[],"failed_video":[],"trial_type":"preload","trial_index":1,"plugin_version":"2.1.0","time_elapsed":8331,"subject_id":"87136","group":"Group2"},{"rt":11275,"url":"SONA_consent_memorability.html","trial_type":"external-html","trial_index":2,"plugin_version":"2.1.0","time_elapsed":19650,"subject_id":"87136","group":"Group2"},{"success":true,"rt":1581,"trial_type":"fullscreen","trial_index":3,"plugin_version":"2.1.0","time_elapsed":22236,"subject_id":"87136","group":"Group2"},{"rt":14510,"stimulus":"<div style=\"max-width: 760px; margin: auto; font-size: 20px; line-height: 1.5;\">\n      <h1 style=\"text-align:center; font-size: 30px;\">Instructions</h1>\n      <p>\n        Welcome to the study on <b>visual memory</b>. This experiment consists of <b>two phases</b>: \n        a <b>study phase</b> and a <b>test phase</b>.\n      </p>\n      <p>\n        In the study phase, you will see a series of rock images along with their category labels.\n        The images will appear one at a time.\n        <b>Your task</b> is to learn the categories to which the rock images belong \n        and to remember each image as accurately as possible.\n      </p> \n      <p>\n        After the study phase, <b>your memory will be tested</b>. \n        Additional instructions for the test phase will be provided at that time.\n      </p>\n      <p>\n        If your computer has multiple <b>language settings</b> (e.g., English and another language),\n        please make sure it is set to English before starting.\n      </p>\n      <p>\n        You can track your progress using the <b>completion bar</b> at the top of the screen. \n        Please note that the bar will refresh when the test phase begins \n        to give you an accurate sense of your progress in both phases.\n      </p> \n      <p>\n        Press the button below when you are ready to begin.\n      </p>\n    </div>","response":0,"trial_type":"html-button-response","trial_index":4,"plugin_version":"2.1.0","time_elapsed":36750,"subject_id":"87136","group":"Group2"},{"rt":null,"stimulus":"<p style=\"font-size: 50px; margin: 0; text-align: center;\">+</p>","response":null,"trial_type":"html-keyboard-response","trial_index":5,"plugin_version":"2.1.0","time_elapsed":37753,"subject_id":"87136","group":"Group2"},{"task":"memory_phase","broad_category":"I","image_png":"I_Peridotite_03.png","image_id":115,"category_name":"Peridotite","category":8,"distinct_rating":5.71,"rt":null,"stimulus":"Stimuli_Rocks480/I_Peridotite_03.png","response":null,"trial_type":"image-keyboard-response","trial_index":6,"plugin_version":"2.1.0","time_elapsed":40256,"subject_id":"87136","group":"Group2"},{"rt":null,"stimulus":"<p style=\"font-size: 50px; margin: 0; text-align: center;\">+</p>","response":null,"trial_type":"html-keyboard-response","trial_index":7,"plugin_version":"2.1.0","time_elapsed":41259,"subject_id":"87136","group":"Group2"},{"task":"memory_phase","broad_category":"M","image_png":"M_Schist_03.png","image_id":291,"category_name":"Schist","category":19,"distinct_rating":4.03,"rt":null,"stimulus":"Stimuli_Rocks480/M_Schist_03.png","response":null,"trial_type":"image-keyboard-response","trial_index":8,"plugin_version":"2.1.0","time_elapsed":43764,"subject_id":"87136","group":"Group2"},{"rt":null,"stimulus":"<p style=\"font-size: 50px; margin: 0; text-align: center;\">+</p>","response":null,"trial_type":"html-keyboard-response","trial_index":9,"plugin_version":"2.1.0","time_elapsed":44766,"subject_id":"87136","group":"Group2"},{"task":"memory_phase","broad_category":"M","image_png":"M_Slate_15.png","image_id":319,"category_name":"Slate","category":20,"distinct_rating":2.13,"rt":null,"stimulus":"Stimuli_Rocks480/M_Slate_15.png","response":null,"trial_type":"image-keyboard-response","trial_index":10,"plugin_version":"2.1.0","time_elapsed":47271,"subject_id":"87136","group":"Group2"},{"rt":null,"stimulus":"<p style=\"font-size: 50px; margin: 0; text-align: center;\">+</p>","response":null,"trial_type":"html-keyboard-response","trial_index":11,"plugin_version":"2.1.0","time_elapsed":48273,"subject_id":"87136","group":"Group2"},{"task":"memory_phase","broad_category":"S","image_png":"S_Sandstone_16.png","image_id":464,"category_name":"Sandstone","category":29,"distinct_rating":1.93,"rt":null,"stimulus":"Stimuli_Rocks480/S_Sandstone_16.png","response":null,"trial_type":"image-keyboard-response","trial_index":12,"plugin_version":"2.1.0","time_elapsed":50777,"subject_id":"87136","group":"Group2"},{"rt":null,"stimulus":"<p style=\"font-size: 50px; margin: 0; text-align: center;\">+</p>","response":null,"trial_type":"html-keyboard-response","trial_index":13,"plugin_version":"2.1.0","time_elapsed":51780,"subject_id":"87136","group":"Group2"},{"task":"memory_phase","broad_category":"M","image_png":"M_Marble_05.png","image_id":229,"category_name":"Marble","category":15,"distinct_rating":4.1,"rt":null,"stimulus":"Stimuli_Rocks480/M_Marble_05.png","response":null,"trial_type":"image-keyboard-response","trial_index":14,"plugin_version":"2.1.0","time_elapsed":54284,"subject_id":"87136","group":"Group2"},{"rt":null,"stimulus":"<p style=\"font-size: 50px; margin: 0; text-align: center;\">+</p>","response":null,"trial_type":"html-keyboard-response","trial_index":15,"plugin_version":"2.1.0","time_elapsed":55287,"subject_id":"87136","group":"Group2"},{"task":"memory_phase","broad_category":"M","image_png":"M_Marble_08.png","image_id":232,"category_name":"Marble","category":15,"distinct_rating":4.35,"rt":null,"stimulus":"Stimuli_Rocks480/M_Marble_08.png","response":null,"trial_type":"image-keyboard-response","trial_index":16,"plugin_version":"2.1.0","time_elapsed":57790,"subject_id":"87136","group":"Group2"},{"rt":null,"stimulus":"<p style=\"font-size: 50px; margin: 0; text-align: center;\">+</p>","response":null,"trial_type":"html-keyboard-response","trial_index":17,"plugin_version":"2.1.0","time_elapsed":58793,"subject_id":"87136","group":"Group2"},{"task":"memory_phase","broad_category":"I","image_png":"I_Peridotite_08.png","image_id":120,"category_name":"Peridotite","category":8,"distinct_rating":4.77,"rt":null,"stimulus":"Stimuli_Rocks480/I_Peridotite_08.png","response":null,"trial_type":"image-keyboard-response","trial_index":18,"plugin_version":"2.1.0","time_elapsed":61297,"subject_id":"87136","group":"Group2"},{"rt":null,"stimulus":"<p style=\"font-size: 50px; margin: 0; text-align: center;\">+</p>","response":null,"trial_type":"html-keyboard-response","trial_index":19,"plugin_version":"2.1.0","time_elapsed":62300,"subject_id":"87136","group":"Group2"},{"task":"memory_phase","broad_category":"S","image_png":"S_Breccia_01.png","image_id":337,"category_name":"Breccia","category":22,"distinct_rating":7.35,"rt":null,"stimulus":"Stimuli_Rocks480/S_Breccia_01.png","response":null,"trial_type":"image-keyboard-response","trial_index":20,"plugin_version":"2.1.0","time_elapsed":64804,"subject_id":"87136","group":"Group2"},{"rt":null,"stimulus":"<p style=\"font-size: 50px; margin: 0; text-align: center;\">+</p>","response":null,"trial_type":"html-keyboard-response","trial_index":21,"plugin_version":"2.1.0","time_elapsed":65806,"subject_id":"87136","group":"Group2"},{"task":"memory_phase","broad_category":"S","image_png":"S_Rock Salt_06.png","image_id":438,"category_name":"Rock Salt","category":28,"distinct_rating":5.53,"rt":null,"stimulus":"Stimuli_Rocks480/S_Rock Salt_06.png","response":null,"trial_type":"image-keyboard-response","trial_index":22,"plugin_version":"2.1.0","time_elapsed":68310,"subject_id":"87136","group":"Group2"},{"rt":null,"stimulus":"<p style=\"font-size: 50px; margin: 0; text-align: center;\">+</p>","response":null,"trial_type":"html-keyboard-response","trial_index":23,"plugin_version":"2.1.0","time_elapsed":69312,"subject_id":"87136","group":"Group2"},{"task":"memory_phase","broad_category":"I","image_png":"I_Diorite_07.png","image_id":39,"category_name":"Diorite","category":3,"distinct_rating":4.63,"rt":null,"stimulus":"Stimuli_Rocks480/I_Diorite_07.png","response":null,"trial_type":"image-keyboard-response","trial_index":24,"plugin_version":"2.1.0","time_elapsed":71817,"subject_id":"87136","group":"Group2"},{"rt":null,"stimulus":"<p style=\"font-size: 50px; margin: 0; text-align: center;\">+</p>","response":null,"trial_type":"html-keyboard-response","trial_index":25,"plugin_version":"2.1.0","time_elapsed":72819,"subject_id":"87136","group":"Group2"},{"task":"memory_phase","broad_category":"M","image_png":"M_Slate_13.png","image_id":317,"category_name":"Slate","category":20,"distinct_rating":2.45,"rt":null,"stimulus":"Stimuli_Rocks480/M_Slate_13.png","response":null,"trial_type":"image-keyboard-response","trial_index":26,"plugin_version":"2.1.0","time_elapsed":75323,"subject_id":"87136","group":"Group2"},{"rt":null,"stimulus":"<p style=\"font-size: 50px; margin: 0; text-align: center;\">+</p>","response":null,"trial_type":"html-keyboard-response","trial_index":27,"plugin_version":"2.1.0","time_elapsed":76325,"subject_id":"87136","group":"Group2"},{"task":"memory_phase","broad_category":"S","image_png":"S_Rock Gypsum_03.png","image_id":419,"category_name":"Rock Gypsum","category":27,"distinct_rating":4.18,"rt":null,"stimulus":"Stimuli_Rocks480/S_Rock Gypsum_03.png","response":null,"trial_type":"image-keyboard-response","trial_index":28,"plugin_version":"2.1.0","time_elapsed":78828,"subject_id":"87136","group":"Group2"},{"rt":null,"stimulus":"<p style=\"font-size: 50px; margin: 0; text-align: center;\">+</p>","response":null,"trial_type":"html-keyboard-response","trial_index":29,"plugin_version":"2.1.0","time_elapsed":79830,"subject_id":"87136","group":"Group2"},{"task":"memory_phase","broad_category":"M","image_png":"M_Quartzite_11.png","image_id":283,"category_name":"Quartzite","category":18,"distinct_rating":2.89,"rt":null,"stimulus":"Stimuli_Rocks480/M_Quartzite_11.png","response":null,"trial_type":"image-keyboard-response","trial_index":30,"plugin_version":"2.1.0","time_elapsed":82334,"subject_id":"87136","group":"Group2"},{"rt":null,"stimulus":"<p style=\"font-size: 50px; margin: 0; text-align: center;\">+</p>","response":null,"trial_type":"html-keyboard-response","trial_index":31,"plugin_version":"2.1.0","time_elapsed":83336,"subject_id":"87136","group":"Group2"},{"task":"memory_phase","broad_category":"S","image_png":"S_Rock Gypsum_06.png","image_id":422,"category_name":"Rock Gypsum","category":27,"distinct_rating":2.61,"rt":null,"stimulus":"Stimuli_Rocks480/S_Rock Gypsum_06.png","response":null,"trial_type":"image-keyboard-response","trial_index":32,"plugin_version":"2.1.0","time_elapsed":85840,"subject_id":"87136","group":"Group2"},{"rt":null,"stimulus":"<p style=\"font-size: 50px; margin: 0; text-align: center;\">+</p>","response":null,"trial_type":"html-keyboard-response","trial_index":33,"plugin_version":"2.1.0","time_elapsed":86842,"subject_id":"87136","group":"Group2"},{"task":"memory_phase","broad_category":"M","image_png":"M_Schist_02.png","image_id":290,"category_name":"Schist","category":19,"distinct_rating":3.37,"rt":null,"stimulus":"Stimuli_Rocks480/M_Schist_02.png","response":null,"trial_type":"image-keyboard-response","trial_index":34,"plugin_version":"2.1.0","time_elapsed":89346,"subject_id":"87136","group":"Group2"},{"rt":null,"stimulus":"<p style=\"font-size: 50px; margin: 0; text-align: center;\">+</p>","response":null,"trial_type":"html-keyboard-response","trial_index":35,"plugin_version":"2.1.0","time_elapsed":90348,"subject_id":"87136","group":"Group2"},{"task":"memory_phase","broad_category":"S","image_png":"S_Bituminous Coal_11.png","image_id":331,"category_name":"Bituminous Coal","category":21,"distinct_rating":3.71,"rt":null,"stimulus":"Stimuli_Rocks480/S_Bituminous Coal_11.png","response":null,"trial_type":"image-keyboard-response","trial_index":36,"plugin_version":"2.1.0","time_elapsed":92853,"subject_id":"87136","group":"Group2"},{"rt":null,"stimulus":"<p style=\"font-size: 50px; margin: 0; text-align: center;\">+</p>","response":null,"trial_type":"html-keyboard-response","trial_index":37,"plugin_version":"2.1.0","time_elapsed":93855,"subject_id":"87136","group":"Group2"},{"task":"memory_phase","broad_category":"M","image_png":"M_Migmatite_06.png","image_id":246,"category_name":"Migmatite","category":16,"distinct_rating":4.63,"rt":null,"stimulus":"Stimuli_Rocks480/M_Migmatite_06.png","response":null,"trial_type":"image-keyboard-response","trial_index":38,"plugin_version":"2.1.0","time_elapsed":96359,"subject_id":"87136","group":"Group2"},{"rt":null,"stimulus":"<p style=\"font-size: 50px; margin: 0; text-align: center;\">+</p>","response":null,"trial_type":"html-keyboard-response","trial_index":39,"plugin_version":"2.1.0","time_elapsed":97361,"subject_id":"87136","group":"Group2"},{"task":"memory_phase","broad_category":"S","image_png":"S_Micrite_12.png","image_id":412,"category_name":"Micrite","category":26,"distinct_rating":3.14,"rt":null,"stimulus":"Stimuli_Rocks480/S_Micrite_12.png","response":null,"trial_type":"image-keyboard-response","trial_index":40,"plugin_version":"2.1.0","time_elapsed":99865,"subject_id":"87136","group":"Group2"},{"rt":null,"stimulus":"<p style=\"font-size: 50px; margin: 0; text-align: center;\">+</p>","response":null,"trial_type":"html-keyboard-response","trial_index":41,"plugin_version":"2.1.0","time_elapsed":100867,"subject_id":"87136","group":"Group2"},{"task":"memory_phase","broad_category":"S","image_png":"S_Micrite_05.png","image_id":405,"category_name":"Micrite","category":26,"distinct_rating":8.21,"rt":null,"stimulus":"Stimuli_Rocks480/S_Micrite_05.png","response":null,"trial_type":"image-keyboard-response","trial_index":42,"plugin_version":"2.1.0","time_elapsed":103371,"subject_id":"87136","group":"Group2"},{"rt":null,"stimulus":"<p style=\"font-size: 50px; margin: 0; text-align: center;\">+</p>","response":null,"trial_type":"html-keyboard-response","trial_index":43,"plugin_version":"2.1.0","time_elapsed":104374,"subject_id":"87136","group":"Group2"},{"task":"memory_phase","broad_category":"M","image_png":"M_Marble_04.png","image_id":228,"category_name":"Marble","category":15,"distinct_rating":3.15,"rt":null,"stimulus":"Stimuli_Rocks480/M_Marble_04.png","response":null,"trial_type":"image-keyboard-response","trial_index":44,"plugin_version":"2.1.0","time_elapsed":106877,"subject_id":"87136","group":"Group2"},{"rt":null,"stimulus":"<p style=\"font-size: 50px; margin: 0; text-align: center;\">+</p>","response":null,"trial_type":"html-keyboard-response","trial_index":45,"plugin_version":"2.1.0","time_elapsed":107880,"subject_id":"87136","group":"Group2"},{"task":"memory_phase","broad_category":"S","image_png":"S_Chert_15.png","image_id":367,"category_name":"Chert","category":23,"distinct_rating":4.11,"rt":null,"stimulus":"Stimuli_Rocks480/S_Chert_15.png","response":null,"trial_type":"image-keyboard-response","trial_index":46,"plugin_version":"2.1.0","time_elapsed":110383,"subject_id":"87136","group":"Group2"},{"rt":null,"stimulus":"<p style=\"font-size: 50px; margin: 0; text-align: center;\">+</p>","response":null,"trial_type":"html-keyboard-response","trial_index":47,"plugin_version":"2.1.0","time_elapsed":111386,"subject_id":"87136","group":"Group2"},{"task":"memory_phase","broad_category":"S","image_png":"S_Conglomerate_09.png","image_id":377,"category_name":"Conglomerate","category":24,"distinct_rating":5.21,"rt":null,"stimulus":"Stimuli_Rocks480/S_Conglomerate_09.png","response":null,"trial_type":"image-keyboard-response","trial_index":48,"plugin_version":"2.1.0","time_elapsed":113889,"subject_id":"87136","group":"Group2"},{"rt":null,"stimulus":"<p style=\"font-size: 50px; margin: 0; text-align: center;\">+</p>","response":null,"trial_type":"html-keyboard-response","trial_index":49,"plugin_version":"2.1.0","time_elapsed":114891,"subject_id":"87136","group":"Group2"},{"task":"memory_phase","broad_category":"S","image_png":"S_Sandstone_14.png","image_id":462,"category_name":"Sandstone","category":29,"distinct_rating":2.57,"rt":null,"stimulus":"Stimuli_Rocks480/S_Sandstone_14.png","response":null,"trial_type":"image-keyboard-response","trial_index":50,"plugin_version":"2.1.0","time_elapsed":117395,"subject_id":"87136","group":"Group2"},{"rt":null,"stimulus":"<p style=\"font-size: 50px; margin: 0; text-align: center;\">+</p>","response":null,"trial_type":"html-keyboard-response","trial_index":51,"plugin_version":"2.1.0","time_elapsed":118398,"subject_id":"87136","group":"Group2"},{"task":"memory_phase","broad_category":"I","image_png":"I_Peridotite_15.png","image_id":127,"category_name":"Peridotite","category":8,"distinct_rating":6.28,"rt":null,"stimulus":"Stimuli_Rocks480/I_Peridotite_15.png","response":null,"trial_type":"image-keyboard-response","trial_index":52,"plugin_version":"2.1.0","time_elapsed":120903,"subject_id":"87136","group":"Group2"},{"rt":null,"stimulus":"<p style=\"font-size: 50px; margin: 0; text-align: center;\">+</p>","response":null,"trial_type":"html-keyboard-response","trial_index":53,"plugin_version":"2.1.0","time_elapsed":121905,"subject_id":"87136","group":"Group2"},{"task":"memory_phase","broad_category":"M","image_png":"M_Amphibolite_09.png","image_id":169,"category_name":"Amphibolite","category":11,"distinct_rating":3.83,"rt":null,"stimulus":"Stimuli_Rocks480/M_Amphibolite_09.png","response":null,"trial_type":"image-keyboard-response","trial_index":54,"plugin_version":"2.1.0","time_elapsed":124409,"subject_id":"87136","group":"Group2"},{"rt":null,"stimulus":"<p style=\"font-size: 50px; margin: 0; text-align: center;\">+</p>","response":null,"trial_type":"html-keyboard-response","trial_index":55,"plugin_version":"2.1.0","time_elapsed":125411,"subject_id":"87136","group":"Group2"},{"task":"memory_phase","broad_category":"I","image_png":"I_Obsidian_15.png","image_id":95,"category_name":"Obsidian","category":6,"distinct_rating":6.67,"rt":null,"stimulus":"Stimuli_Rocks480/I_Obsidian_15.png","response":null,"trial_type":"image-keyboard-response","trial_index":56,"plugin_version":"2.1.0","time_elapsed":127915,"subject_id":"87136","group":"Group2"},{"rt":null,"stimulus":"<p style=\"font-size: 50px; margin: 0; text-align: center;\">+</p>","response":null,"trial_type":"html-keyboard-response","trial_index":57,"plugin_version":"2.1.0","time_elapsed":128918,"subject_id":"87136","group":"Group2"},{"task":"memory_phase","broad_category":"M","image_png":"M_Amphibolite_16.png","image_id":176,"category_name":"Amphibolite","category":11,"distinct_rating":2.97,"rt":null,"stimulus":"Stimuli_Rocks480/M_Amphibolite_16.png","response":null,"trial_type":"image-keyboard-response","trial_index":58,"plugin_version":"2.1.0","time_elapsed":131422,"subject_id":"87136","group":"Group2"},{"rt":null,"stimulus":"<p style=\"font-size: 50px; margin: 0; text-align: center;\">+</p>","response":null,"trial_type":"html-keyboard-response","trial_index":59,"plugin_version":"2.1.0","time_elapsed":132425,"subject_id":"87136","group":"Group2"},{"task":"memory_phase","broad_category":"M","image_png":"M_Hornfels_16.png","image_id":224,"category_name":"Hornfels","category":14,"distinct_rating":2.84,"rt":null,"stimulus":"Stimuli_Rocks480/M_Hornfels_16.png","response":null,"trial_type":"image-keyboard-response","trial_index":60,"plugin_version":"2.1.0","time_elapsed":134929,"subject_id":"87136","group":"Group2"},{"rt":null,"stimulus":"<p style=\"font-size: 50px; margin: 0; text-align: center;\">+</p>","response":null,"trial_type":"html-keyboard-response","trial_index":61,"plugin_version":"2.1.0","time_elapsed":135931,"subject_id":"87136","group":"Group2"},{"task":"memory_phase","broad_category":"M","image_png":"M_Hornfels_14.png","image_id":222,"category_name":"Hornfels","category":14,"distinct_rating":2.3,"rt":null,"stimulus":"Stimuli_Rocks480/M_Hornfels_14.png","response":null,"trial_type":"image-keyboard-response","trial_index":62,"plugin_version":"2.1.0","time_elapsed":138434,"subject_id":"87136","group":"Group2"},{"rt":null,"stimulus":"<p style=\"font-size: 50px; margin: 0; text-align: center;\">+</p>","response":null,"trial_type":"html-keyboard-response","trial_index":63,"plugin_version":"2.1.0","time_elapsed":139437,"subject_id":"87136","group":"Group2"},{"task":"memory_phase","broad_category":"M","image_png":"M_Hornfels_13.png","image_id":221,"category_name":"Hornfels","category":14,"distinct_rating":3.2,"rt":null,"stimulus":"Stimuli_Rocks480/M_Hornfels_13.png","response":null,"trial_type":"image-keyboard-response","trial_index":64,"plugin_version":"2.1.0","time_elapsed":141941,"subject_id":"87136","group":"Group2"},{"rt":null,"stimulus":"<p style=\"font-size: 50px; margin: 0; text-align: center;\">+</p>","response":null,"trial_type":"html-keyboard-response","trial_index":65,"plugin_version":"2.1.0","time_elapsed":142944,"subject_id":"87136","group":"Group2"},{"task":"memory_phase","broad_category":"I","image_png":"I_Pumice_16.png","image_id":144,"category_name":"Pumice","category":9,"distinct_rating":5.37,"rt":null,"stimulus":"Stimuli_Rocks480/I_Pumice_16.png","response":null,"trial_type":"image-keyboard-response","trial_index":66,"plugin_version":"2.1.0","time_elapsed":145448,"subject_id":"87136","group":"Group2"},{"rt":null,"stimulus":"<p style=\"font-size: 50px; margin: 0; text-align: center;\">+</p>","response":null,"trial_type":"html-keyboard-response","trial_index":67,"plugin_version":"2.1.0","time_elapsed":146450,"subject_id":"87136","group":"Group2"},{"task":"memory_phase","broad_category":"M","image_png":"M_Migmatite_07.png","image_id":247,"category_name":"Migmatite","category":16,"distinct_rating":4.38,"rt":null,"stimulus":"Stimuli_Rocks480/M_Migmatite_07.png","response":null,"trial_type":"image-keyboard-response","trial_index":68,"plugin_version":"2.1.0","time_elapsed":148954,"subject_id":"87136","group":"Group2"},{"rt":null,"stimulus":"<p style=\"font-size: 50px; margin: 0; text-align: center;\">+</p>","response":null,"trial_type":"html-keyboard-response","trial_index":69,"plugin_version":"2.1.0","time_elapsed":149956,"subject_id":"87136","group":"Group2"},{"task":"memory_phase","broad_category":"M","image_png":"M_Marble_10.png","image_id":234,"category_name":"Marble","category":15,"distinct_rating":4.13,"rt":null,"stimulus":"Stimuli_Rocks480/M_Marble_10.png","response":null,"trial_type":"image-keyboard-response","trial_index":70,"plugin_version":"2.1.0","time_elapsed":152459,"subject_id":"87136","group":"Group2"},{"rt":null,"stimulus":"<p style=\"font-size: 50px; margin: 0; text-align: center;\">+</p>","response":null,"trial_type":"html-keyboard-response","trial_index":71,"plugin_version":"2.1.0","time_elapsed":153461,"subject_id":"87136","group":"Group2"},{"task":"memory_phase","broad_category":"I","image_png":"I_Gabbro_15.png","image_id":63,"category_name":"Gabbro","category":4,"distinct_rating":3.37,"rt":null,"stimulus":"Stimuli_Rocks480/I_Gabbro_15.png","response":null,"trial_type":"image-keyboard-response","trial_index":72,"plugin_version":"2.1.0","time_elapsed":155964,"subject_id":"87136","group":"Group2"},{"rt":null,"stimulus":"<p style=\"font-size: 50px; margin: 0; text-align: center;\">+</p>","response":null,"trial_type":"html-keyboard-response","trial_index":73,"plugin_version":"2.1.0","time_elapsed":156967,"subject_id":"87136","group":"Group2"},{"task":"memory_phase","broad_category":"S","image_png":"S_Chert_11.png","image_id":363,"category_name":"Chert","category":23,"distinct_rating":7.12,"rt":null,"stimulus":"Stimuli_Rocks480/S_Chert_11.png","response":null,"trial_type":"image-keyboard-response","trial_index":74,"plugin_version":"2.1.0","time_elapsed":159471,"subject_id":"87136","group":"Group2"},{"rt":null,"stimulus":"<p style=\"font-size: 50px; margin: 0; text-align: center;\">+</p>","response":null,"trial_type":"html-keyboard-response","trial_index":75,"plugin_version":"2.1.0","time_elapsed":160473,"subject_id":"87136","group":"Group2"},{"task":"memory_phase","broad_category":"M","image_png":"M_Slate_11.png","image_id":315,"category_name":"Slate","category":20,"distinct_rating":2.75,"rt":null,"stimulus":"Stimuli_Rocks480/M_Slate_11.png","response":null,"trial_type":"image-keyboard-response","trial_index":76,"plugin_version":"2.1.0","time_elapsed":162977,"subject_id":"87136","group":"Group2"},{"rt":null,"stimulus":"<p style=\"font-size: 50px; margin: 0; text-align: center;\">+</p>","response":null,"trial_type":"html-keyboard-response","trial_index":77,"plugin_version":"2.1.0","time_elapsed":163980,"subject_id":"87136","group":"Group2"},{"task":"memory_phase","broad_category":"M","image_png":"M_Anthracite_05.png","image_id":181,"category_name":"Anthracite","category":12,"distinct_rating":4.71,"rt":null,"stimulus":"Stimuli_Rocks480/M_Anthracite_05.png","response":null,"trial_type":"image-keyboard-response","trial_index":78,"plugin_version":"2.1.0","time_elapsed":166483,"subject_id":"87136","group":"Group2"},{"rt":null,"stimulus":"<p style=\"font-size: 50px; margin: 0; text-align: center;\">+</p>","response":null,"trial_type":"html-keyboard-response","trial_index":79,"plugin_version":"2.1.0","time_elapsed":167486,"subject_id":"87136","group":"Group2"},{"task":"memory_phase","broad_category":"I","image_png":"I_Granite_16.png","image_id":80,"category_name":"Granite","category":5,"distinct_rating":4.06,"rt":null,"stimulus":"Stimuli_Rocks480/I_Granite_16.png","response":null,"trial_type":"image-keyboard-response","trial_index":80,"plugin_version":"2.1.0","time_elapsed":169989,"subject_id":"87136","group":"Group2"},{"rt":null,"stimulus":"<p style=\"font-size: 50px; margin: 0; text-align: center;\">+</p>","response":null,"trial_type":"html-keyboard-response","trial_index":81,"plugin_version":"2.1.0","time_elapsed":170992,"subject_id":"87136","group":"Group2"},{"task":"memory_phase","broad_category":"M","image_png":"M_Amphibolite_12.png","image_id":172,"category_name":"Amphibolite","category":11,"distinct_rating":5.62,"rt":null,"stimulus":"Stimuli_Rocks480/M_Amphibolite_12.png","response":null,"trial_type":"image-keyboard-response","trial_index":82,"plugin_version":"2.1.0","time_elapsed":173496,"subject_id":"87136","group":"Group2"},{"rt":null,"stimulus":"<p style=\"font-size: 50px; margin: 0; text-align: center;\">+</p>","response":null,"trial_type":"html-keyboard-response","trial_index":83,"plugin_version":"2.1.0","time_elapsed":174498,"subject_id":"87136","group":"Group2"},{"task":"memory_phase","broad_category":"S","image_png":"S_Breccia_03.png","image_id":339,"category_name":"Breccia","category":22,"distinct_rating":5.07,"rt":null,"stimulus":"Stimuli_Rocks480/S_Breccia_03.png","response":null,"trial_type":"image-keyboard-response","trial_index":84,"plugin_version":"2.1.0","time_elapsed":177002,"subject_id":"87136","group":"Group2"},{"rt":null,"stimulus":"<p style=\"font-size: 50px; margin: 0; text-align: center;\">+</p>","response":null,"trial_type":"html-keyboard-response","trial_index":85,"plugin_version":"2.1.0","time_elapsed":178005,"subject_id":"87136","group":"Group2"},{"task":"memory_phase","broad_category":"S","image_png":"S_Dolomite_15.png","image_id":399,"category_name":"Dolomite","category":25,"distinct_rating":2.16,"rt":null,"stimulus":"Stimuli_Rocks480/S_Dolomite_15.png","response":null,"trial_type":"image-keyboard-response","trial_index":86,"plugin_version":"2.1.0","time_elapsed":180508,"subject_id":"87136","group":"Group2"},{"rt":null,"stimulus":"<p style=\"font-size: 50px; margin: 0; text-align: center;\">+</p>","response":null,"trial_type":"html-keyboard-response","trial_index":87,"plugin_version":"2.1.0","time_elapsed":181511,"subject_id":"87136","group":"Group2"},{"task":"memory_phase","broad_category":"S","image_png":"S_Chert_05.png","image_id":357,"category_name":"Chert","category":23,"distinct_rating":5.12,"rt":null,"stimulus":"Stimuli_Rocks480/S_Chert_05.png","response":null,"trial_type":"image-keyboard-response","trial_index":88,"plugin_version":"2.1.0","time_elapsed":184014,"subject_id":"87136","group":"Group2"},{"rt":null,"stimulus":"<p style=\"font-size: 50px; margin: 0; text-align: center;\">+</p>","response":null,"trial_type":"html-keyboard-response","trial_index":89,"plugin_version":"2.1.0","time_elapsed":185016,"subject_id":"87136","group":"Group2"},{"task":"memory_phase","broad_category":"I","image_png":"I_Andesite_08.png","image_id":8,"category_name":"Andesite","category":1,"distinct_rating":1.95,"rt":null,"stimulus":"Stimuli_Rocks480/I_Andesite_08.png","response":null,"trial_type":"image-keyboard-response","trial_index":90,"plugin_version":"2.1.0","time_elapsed":187520,"subject_id":"87136","group":"Group2"},{"rt":null,"stimulus":"<p style=\"font-size: 50px; margin: 0; text-align: center;\">+</p>","response":null,"trial_type":"html-keyboard-response","trial_index":91,"plugin_version":"2.1.0","time_elapsed":188523,"subject_id":"87136","group":"Group2"},{"task":"memory_phase","broad_category":"M","image_png":"M_Anthracite_08.png","image_id":184,"category_name":"Anthracite","category":12,"distinct_rating":4.77,"rt":null,"stimulus":"Stimuli_Rocks480/M_Anthracite_08.png","response":null,"trial_type":"image-keyboard-response","trial_index":92,"plugin_version":"2.1.0","time_elapsed":191027,"subject_id":"87136","group":"Group2"},{"rt":null,"stimulus":"<p style=\"font-size: 50px; margin: 0; text-align: center;\">+</p>","response":null,"trial_type":"html-keyboard-response","trial_index":93,"plugin_version":"2.1.0","time_elapsed":192029,"subject_id":"87136","group":"Group2"},{"task":"memory_phase","broad_category":"M","image_png":"M_Anthracite_10.png","image_id":186,"category_name":"Anthracite","category":12,"distinct_rating":5.19,"rt":null,"stimulus":"Stimuli_Rocks480/M_Anthracite_10.png","response":null,"trial_type":"image-keyboard-response","trial_index":94,"plugin_version":"2.1.0","time_elapsed":194533,"subject_id":"87136","group":"Group2"},{"rt":null,"stimulus":"<p style=\"font-size: 50px; margin: 0; text-align: center;\">+</p>","response":null,"trial_type":"html-keyboard-response","trial_index":95,"plugin_version":"2.1.0","time_elapsed":195536,"subject_id":"87136","group":"Group2"},{"task":"memory_phase","broad_category":"I","image_png":"I_Rhyolite_10.png","image_id":154,"category_name":"Rhyolite","category":10,"distinct_rating":2.88,"rt":null,"stimulus":"Stimuli_Rocks480/I_Rhyolite_10.png","response":null,"trial_type":"image-keyboard-response","trial_index":96,"plugin_version":"2.1.0","time_elapsed":198039,"subject_id":"87136","group":"Group2"},{"rt":null,"stimulus":"<p style=\"font-size: 50px; margin: 0; text-align: center;\">+</p>","response":null,"trial_type":"html-keyboard-response","trial_index":97,"plugin_version":"2.1.0","time_elapsed":199041,"subject_id":"87136","group":"Group2"},{"task":"memory_phase","broad_category":"M","image_png":"M_Gneiss_06.png","image_id":198,"category_name":"Gneiss","category":13,"distinct_rating":2.65,"rt":null,"stimulus":"Stimuli_Rocks480/M_Gneiss_06.png","response":null,"trial_type":"image-keyboard-response","trial_index":98,"plugin_version":"2.1.0","time_elapsed":201550,"subject_id":"87136","group":"Group2"},{"rt":null,"stimulus":"<p style=\"font-size: 50px; margin: 0; text-align: center;\">+</p>","response":null,"trial_type":"html-keyboard-response","trial_index":99,"plugin_version":"2.1.0","time_elapsed":202553,"subject_id":"87136","group":"Group2"},{"task":"memory_phase","broad_category":"S","image_png":"S_Chert_08.png","image_id":360,"category_name":"Chert","category":23,"distinct_rating":5.52,"rt":null,"stimulus":"Stimuli_Rocks480/S_Chert_08.png","response":null,"trial_type":"image-keyboard-response","trial_index":100,"plugin_version":"2.1.0","time_elapsed":205057,"subject_id":"87136","group":"Group2"},{"rt":2013,"stimulus":"<p style=\"font-size: 35px;\">Press SPACE to continue study phase</p>","response":" ","trial_type":"html-keyboard-response","trial_index":101,"plugin_version":"2.1.0","time_elapsed":207072,"subject_id":"87136","group":"Group2"},{"rt":null,"stimulus":"<p style=\"font-size: 50px; margin: 0; text-align: center;\">+</p>","response":null,"trial_type":"html-keyboard-response","trial_index":102,"plugin_version":"2.1.0","time_elapsed":208074,"subject_id":"87136","group":"Group2"},{"task":"memory_phase","broad_category":"M","image_png":"M_Migmatite_15.png","image_id":255,"category_name":"Migmatite","category":16,"distinct_rating":5.37,"rt":null,"stimulus":"Stimuli_Rocks480/M_Migmatite_15.png","response":null,"trial_type":"image-keyboard-response","trial_index":103,"plugin_version":"2.1.0","time_elapsed":210578,"subject_id":"87136","group":"Group2"},{"rt":null,"stimulus":"<p style=\"font-size: 50px; margin: 0; text-align: center;\">+</p>","response":null,"trial_type":"html-keyboard-response","trial_index":104,"plugin_version":"2.1.0","time_elapsed":211580,"subject_id":"87136","group":"Group2"},{"task":"memory_phase","broad_category":"I","image_png":"I_Pumice_08.png","image_id":136,"category_name":"Pumice","category":9,"distinct_rating":3.1,"rt":null,"stimulus":"Stimuli_Rocks480/I_Pumice_08.png","response":null,"trial_type":"image-keyboard-response","trial_index":105,"plugin_version":"2.1.0","time_elapsed":214084,"subject_id":"87136","group":"Group2"},{"rt":null,"stimulus":"<p style=\"font-size: 50px; margin: 0; text-align: center;\">+</p>","response":null,"trial_type":"html-keyboard-response","trial_index":106,"plugin_version":"2.1.0","time_elapsed":215087,"subject_id":"87136","group":"Group2"},{"task":"memory_phase","broad_category":"M","image_png":"M_Phyllite_09.png","image_id":265,"category_name":"Phyllite","category":17,"distinct_rating":2.96,"rt":null,"stimulus":"Stimuli_Rocks480/M_Phyllite_09.png","response":null,"trial_type":"image-keyboard-response","trial_index":107,"plugin_version":"2.1.0","time_elapsed":217592,"subject_id":"87136","group":"Group2"},{"rt":null,"stimulus":"<p style=\"font-size: 50px; margin: 0; text-align: center;\">+</p>","response":null,"trial_type":"html-keyboard-response","trial_index":108,"plugin_version":"2.1.0","time_elapsed":218594,"subject_id":"87136","group":"Group2"},{"task":"memory_phase","broad_category":"I","image_png":"I_Pegmatite_01.png","image_id":97,"category_name":"Pegmatite","category":7,"distinct_rating":5.93,"rt":null,"stimulus":"Stimuli_Rocks480/I_Pegmatite_01.png","response":null,"trial_type":"image-keyboard-response","trial_index":109,"plugin_version":"2.1.0","time_elapsed":221098,"subject_id":"87136","group":"Group2"},{"rt":null,"stimulus":"<p style=\"font-size: 50px; margin: 0; text-align: center;\">+</p>","response":null,"trial_type":"html-keyboard-response","trial_index":110,"plugin_version":"2.1.0","time_elapsed":222101,"subject_id":"87136","group":"Group2"},{"task":"memory_phase","broad_category":"S","image_png":"S_Chert_14.png","image_id":366,"category_name":"Chert","category":23,"distinct_rating":4.5,"rt":null,"stimulus":"Stimuli_Rocks480/S_Chert_14.png","response":null,"trial_type":"image-keyboard-response","trial_index":111,"plugin_version":"2.1.0","time_elapsed":224602,"subject_id":"87136","group":"Group2"},{"rt":null,"stimulus":"<p style=\"font-size: 50px; margin: 0; text-align: center;\">+</p>","response":null,"trial_type":"html-keyboard-response","trial_index":112,"plugin_version":"2.1.0","time_elapsed":225604,"subject_id":"87136","group":"Group2"},{"task":"memory_phase","broad_category":"I","image_png":"I_Andesite_03.png","image_id":3,"category_name":"Andesite","category":1,"distinct_rating":3.17,"rt":null,"stimulus":"Stimuli_Rocks480/I_Andesite_03.png","response":null,"trial_type":"image-keyboard-response","trial_index":113,"plugin_version":"2.1.0","time_elapsed":228108,"subject_id":"87136","group":"Group2"},{"rt":null,"stimulus":"<p style=\"font-size: 50px; margin: 0; text-align: center;\">+</p>","response":null,"trial_type":"html-keyboard-response","trial_index":114,"plugin_version":"2.1.0","time_elapsed":229110,"subject_id":"87136","group":"Group2"},{"task":"memory_phase","broad_category":"I","image_png":"I_Pegmatite_05.png","image_id":101,"category_name":"Pegmatite","category":7,"distinct_rating":6.22,"rt":null,"stimulus":"Stimuli_Rocks480/I_Pegmatite_05.png","response":null,"trial_type":"image-keyboard-response","trial_index":115,"plugin_version":"2.1.0","time_elapsed":231614,"subject_id":"87136","group":"Group2"},{"rt":null,"stimulus":"<p style=\"font-size: 50px; margin: 0; text-align: center;\">+</p>","response":null,"trial_type":"html-keyboard-response","trial_index":116,"plugin_version":"2.1.0","time_elapsed":232616,"subject_id":"87136","group":"Group2"},{"task":"memory_phase","broad_category":"M","image_png":"M_Hornfels_06.png","image_id":214,"category_name":"Hornfels","category":14,"distinct_rating":2.66,"rt":null,"stimulus":"Stimuli_Rocks480/M_Hornfels_06.png","response":null,"trial_type":"image-keyboard-response","trial_index":117,"plugin_version":"2.1.0","time_elapsed":235120,"subject_id":"87136","group":"Group2"},{"rt":null,"stimulus":"<p style=\"font-size: 50px; margin: 0; text-align: center;\">+</p>","response":null,"trial_type":"html-keyboard-response","trial_index":118,"plugin_version":"2.1.0","time_elapsed":236123,"subject_id":"87136","group":"Group2"},{"task":"memory_phase","broad_category":"S","image_png":"S_Sandstone_06.png","image_id":454,"category_name":"Sandstone","category":29,"distinct_rating":3.7,"rt":null,"stimulus":"Stimuli_Rocks480/S_Sandstone_06.png","response":null,"trial_type":"image-keyboard-response","trial_index":119,"plugin_version":"2.1.0","time_elapsed":238626,"subject_id":"87136","group":"Group2"},{"rt":null,"stimulus":"<p style=\"font-size: 50px; margin: 0; text-align: center;\">+</p>","response":null,"trial_type":"html-keyboard-response","trial_index":120,"plugin_version":"2.1.0","time_elapsed":239629,"subject_id":"87136","group":"Group2"},{"task":"memory_phase","broad_category":"M","image_png":"M_Anthracite_14.png","image_id":190,"category_name":"Anthracite","category":12,"distinct_rating":4.36,"rt":null,"stimulus":"Stimuli_Rocks480/M_Anthracite_14.png","response":null,"trial_type":"image-keyboard-response","trial_index":121,"plugin_version":"2.1.0","time_elapsed":242132,"subject_id":"87136","group":"Group2"},{"rt":null,"stimulus":"<p style=\"font-size: 50px; margin: 0; text-align: center;\">+</p>","response":null,"trial_type":"html-keyboard-response","trial_index":122,"plugin_version":"2.1.0","time_elapsed":243135,"subject_id":"87136","group":"Group2"},{"task":"memory_phase","broad_category":"I","image_png":"I_Rhyolite_09.png","image_id":153,"category_name":"Rhyolite","category":10,"distinct_rating":3.52,"rt":null,"stimulus":"Stimuli_Rocks480/I_Rhyolite_09.png","response":null,"trial_type":"image-keyboard-response","trial_index":123,"plugin_version":"2.1.0","time_elapsed":245638,"subject_id":"87136","group":"Group2"},{"rt":null,"stimulus":"<p style=\"font-size: 50px; margin: 0; text-align: center;\">+</p>","response":null,"trial_type":"html-keyboard-response","trial_index":124,"plugin_version":"2.1.0","time_elapsed":246641,"subject_id":"87136","group":"Group2"},{"task":"memory_phase","broad_category":"M","image_png":"M_Slate_08.png","image_id":312,"category_name":"Slate","category":20,"distinct_rating":1.9,"rt":null,"stimulus":"Stimuli_Rocks480/M_Slate_08.png","response":null,"trial_type":"image-keyboard-response","trial_index":125,"plugin_version":"2.1.0","time_elapsed":249144,"subject_id":"87136","group":"Group2"},{"rt":null,"stimulus":"<p style=\"font-size: 50px; margin: 0; text-align: center;\">+</p>","response":null,"trial_type":"html-keyboard-response","trial_index":126,"plugin_version":"2.1.0","time_elapsed":250147,"subject_id":"87136","group":"Group2"},{"task":"memory_phase","broad_category":"I","image_png":"I_Andesite_14.png","image_id":14,"category_name":"Andesite","category":1,"distinct_rating":4.47,"rt":null,"stimulus":"Stimuli_Rocks480/I_Andesite_14.png","response":null,"trial_type":"image-keyboard-response","trial_index":127,"plugin_version":"2.1.0","time_elapsed":252650,"subject_id":"87136","group":"Group2"},{"rt":null,"stimulus":"<p style=\"font-size: 50px; margin: 0; text-align: center;\">+</p>","response":null,"trial_type":"html-keyboard-response","trial_index":128,"plugin_version":"2.1.0","time_elapsed":253653,"subject_id":"87136","group":"Group2"},{"task":"memory_phase","broad_category":"M","image_png":"M_Gneiss_14.png","image_id":206,"category_name":"Gneiss","category":13,"distinct_rating":3.41,"rt":null,"stimulus":"Stimuli_Rocks480/M_Gneiss_14.png","response":null,"trial_type":"image-keyboard-response","trial_index":129,"plugin_version":"2.1.0","time_elapsed":256156,"subject_id":"87136","group":"Group2"},{"rt":null,"stimulus":"<p style=\"font-size: 50px; margin: 0; text-align: center;\">+</p>","response":null,"trial_type":"html-keyboard-response","trial_index":130,"plugin_version":"2.1.0","time_elapsed":257159,"subject_id":"87136","group":"Group2"},{"task":"memory_phase","broad_category":"I","image_png":"I_Rhyolite_06.png","image_id":150,"category_name":"Rhyolite","category":10,"distinct_rating":5,"rt":null,"stimulus":"Stimuli_Rocks480/I_Rhyolite_06.png","response":null,"trial_type":"image-keyboard-response","trial_index":131,"plugin_version":"2.1.0","time_elapsed":259663,"subject_id":"87136","group":"Group2"},{"rt":null,"stimulus":"<p style=\"font-size: 50px; margin: 0; text-align: center;\">+</p>","response":null,"trial_type":"html-keyboard-response","trial_index":132,"plugin_version":"2.1.0","time_elapsed":260666,"subject_id":"87136","group":"Group2"},{"task":"memory_phase","broad_category":"S","image_png":"S_Conglomerate_01.png","image_id":369,"category_name":"Conglomerate","category":24,"distinct_rating":6.23,"rt":null,"stimulus":"Stimuli_Rocks480/S_Conglomerate_01.png","response":null,"trial_type":"image-keyboard-response","trial_index":133,"plugin_version":"2.1.0","time_elapsed":263169,"subject_id":"87136","group":"Group2"},{"rt":null,"stimulus":"<p style=\"font-size: 50px; margin: 0; text-align: center;\">+</p>","response":null,"trial_type":"html-keyboard-response","trial_index":134,"plugin_version":"2.1.0","time_elapsed":264171,"subject_id":"87136","group":"Group2"},{"task":"memory_phase","broad_category":"M","image_png":"M_Anthracite_01.png","image_id":177,"category_name":"Anthracite","category":12,"distinct_rating":4.23,"rt":null,"stimulus":"Stimuli_Rocks480/M_Anthracite_01.png","response":null,"trial_type":"image-keyboard-response","trial_index":135,"plugin_version":"2.1.0","time_elapsed":266675,"subject_id":"87136","group":"Group2"},{"rt":null,"stimulus":"<p style=\"font-size: 50px; margin: 0; text-align: center;\">+</p>","response":null,"trial_type":"html-keyboard-response","trial_index":136,"plugin_version":"2.1.0","time_elapsed":267678,"subject_id":"87136","group":"Group2"},{"task":"memory_phase","broad_category":"M","image_png":"M_Hornfels_11.png","image_id":219,"category_name":"Hornfels","category":14,"distinct_rating":2.59,"rt":null,"stimulus":"Stimuli_Rocks480/M_Hornfels_11.png","response":null,"trial_type":"image-keyboard-response","trial_index":137,"plugin_version":"2.1.0","time_elapsed":270181,"subject_id":"87136","group":"Group2"},{"rt":null,"stimulus":"<p style=\"font-size: 50px; margin: 0; text-align: center;\">+</p>","response":null,"trial_type":"html-keyboard-response","trial_index":138,"plugin_version":"2.1.0","time_elapsed":271183,"subject_id":"87136","group":"Group2"},{"task":"memory_phase","broad_category":"S","image_png":"S_Micrite_06.png","image_id":406,"category_name":"Micrite","category":26,"distinct_rating":1.8,"rt":null,"stimulus":"Stimuli_Rocks480/S_Micrite_06.png","response":null,"trial_type":"image-keyboard-response","trial_index":139,"plugin_version":"2.1.0","time_elapsed":273687,"subject_id":"87136","group":"Group2"},{"rt":null,"stimulus":"<p style=\"font-size: 50px; margin: 0; text-align: center;\">+</p>","response":null,"trial_type":"html-keyboard-response","trial_index":140,"plugin_version":"2.1.0","time_elapsed":274689,"subject_id":"87136","group":"Group2"},{"task":"memory_phase","broad_category":"M","image_png":"M_Quartzite_07.png","image_id":279,"category_name":"Quartzite","category":18,"distinct_rating":1.97,"rt":null,"stimulus":"Stimuli_Rocks480/M_Quartzite_07.png","response":null,"trial_type":"image-keyboard-response","trial_index":141,"plugin_version":"2.1.0","time_elapsed":277193,"subject_id":"87136","group":"Group2"},{"rt":null,"stimulus":"<p style=\"font-size: 50px; margin: 0; text-align: center;\">+</p>","response":null,"trial_type":"html-keyboard-response","trial_index":142,"plugin_version":"2.1.0","time_elapsed":278195,"subject_id":"87136","group":"Group2"},{"task":"memory_phase","broad_category":"I","image_png":"I_Peridotite_02.png","image_id":114,"category_name":"Peridotite","category":8,"distinct_rating":5.18,"rt":null,"stimulus":"Stimuli_Rocks480/I_Peridotite_02.png","response":null,"trial_type":"image-keyboard-response","trial_index":143,"plugin_version":"2.1.0","time_elapsed":280699,"subject_id":"87136","group":"Group2"},{"rt":null,"stimulus":"<p style=\"font-size: 50px; margin: 0; text-align: center;\">+</p>","response":null,"trial_type":"html-keyboard-response","trial_index":144,"plugin_version":"2.1.0","time_elapsed":281702,"subject_id":"87136","group":"Group2"},{"task":"memory_phase","broad_category":"I","image_png":"I_Pumice_14.png","image_id":142,"category_name":"Pumice","category":9,"distinct_rating":3.22,"rt":null,"stimulus":"Stimuli_Rocks480/I_Pumice_14.png","response":null,"trial_type":"image-keyboard-response","trial_index":145,"plugin_version":"2.1.0","time_elapsed":284205,"subject_id":"87136","group":"Group2"},{"rt":null,"stimulus":"<p style=\"font-size: 50px; margin: 0; text-align: center;\">+</p>","response":null,"trial_type":"html-keyboard-response","trial_index":146,"plugin_version":"2.1.0","time_elapsed":285208,"subject_id":"87136","group":"Group2"},{"task":"memory_phase","broad_category":"S","image_png":"S_Chert_07.png","image_id":359,"category_name":"Chert","category":23,"distinct_rating":2.65,"rt":null,"stimulus":"Stimuli_Rocks480/S_Chert_07.png","response":null,"trial_type":"image-keyboard-response","trial_index":147,"plugin_version":"2.1.0","time_elapsed":287712,"subject_id":"87136","group":"Group2"},{"rt":null,"stimulus":"<p style=\"font-size: 50px; margin: 0; text-align: center;\">+</p>","response":null,"trial_type":"html-keyboard-response","trial_index":148,"plugin_version":"2.1.0","time_elapsed":288714,"subject_id":"87136","group":"Group2"},{"task":"memory_phase","broad_category":"S","image_png":"S_Rock Salt_01.png","image_id":433,"category_name":"Rock Salt","category":28,"distinct_rating":7.18,"rt":null,"stimulus":"Stimuli_Rocks480/S_Rock Salt_01.png","response":null,"trial_type":"image-keyboard-response","trial_index":149,"plugin_version":"2.1.0","time_elapsed":291217,"subject_id":"87136","group":"Group2"},{"rt":null,"stimulus":"<p style=\"font-size: 50px; margin: 0; text-align: center;\">+</p>","response":null,"trial_type":"html-keyboard-response","trial_index":150,"plugin_version":"2.1.0","time_elapsed":292220,"subject_id":"87136","group":"Group2"},{"task":"memory_phase","broad_category":"M","image_png":"M_Marble_11.png","image_id":235,"category_name":"Marble","category":15,"distinct_rating":3.81,"rt":null,"stimulus":"Stimuli_Rocks480/M_Marble_11.png","response":null,"trial_type":"image-keyboard-response","trial_index":151,"plugin_version":"2.1.0","time_elapsed":294723,"subject_id":"87136","group":"Group2"},{"rt":null,"stimulus":"<p style=\"font-size: 50px; margin: 0; text-align: center;\">+</p>","response":null,"trial_type":"html-keyboard-response","trial_index":152,"plugin_version":"2.1.0","time_elapsed":295725,"subject_id":"87136","group":"Group2"},{"task":"memory_phase","broad_category":"M","image_png":"M_Quartzite_10.png","image_id":282,"category_name":"Quartzite","category":18,"distinct_rating":3.75,"rt":null,"stimulus":"Stimuli_Rocks480/M_Quartzite_10.png","response":null,"trial_type":"image-keyboard-response","trial_index":153,"plugin_version":"2.1.0","time_elapsed":298229,"subject_id":"87136","group":"Group2"},{"rt":null,"stimulus":"<p style=\"font-size: 50px; margin: 0; text-align: center;\">+</p>","response":null,"trial_type":"html-keyboard-response","trial_index":154,"plugin_version":"2.1.0","time_elapsed":299232,"subject_id":"87136","group":"Group2"},{"task":"memory_phase","broad_category":"I","image_png":"I_Andesite_12.png","image_id":12,"category_name":"Andesite","category":1,"distinct_rating":3.75,"rt":null,"stimulus":"Stimuli_Rocks480/I_Andesite_12.png","response":null,"trial_type":"image-keyboard-response","trial_index":155,"plugin_version":"2.1.0","time_elapsed":301735,"subject_id":"87136","group":"Group2"},{"rt":null,"stimulus":"<p style=\"font-size: 50px; margin: 0; text-align: center;\">+</p>","response":null,"trial_type":"html-keyboard-response","trial_index":156,"plugin_version":"2.1.0","time_elapsed":302738,"subject_id":"87136","group":"Group2"},{"task":"memory_phase","broad_category":"S","image_png":"S_Breccia_02.png","image_id":338,"category_name":"Breccia","category":22,"distinct_rating":5.94,"rt":null,"stimulus":"Stimuli_Rocks480/S_Breccia_02.png","response":null,"trial_type":"image-keyboard-response","trial_index":157,"plugin_version":"2.1.0","time_elapsed":305240,"subject_id":"87136","group":"Group2"},{"rt":null,"stimulus":"<p style=\"font-size: 50px; margin: 0; text-align: center;\">+</p>","response":null,"trial_type":"html-keyboard-response","trial_index":158,"plugin_version":"2.1.0","time_elapsed":306242,"subject_id":"87136","group":"Group2"},{"task":"memory_phase","broad_category":"M","image_png":"M_Hornfels_01.png","image_id":209,"category_name":"Hornfels","category":14,"distinct_rating":3.04,"rt":null,"stimulus":"Stimuli_Rocks480/M_Hornfels_01.png","response":null,"trial_type":"image-keyboard-response","trial_index":159,"plugin_version":"2.1.0","time_elapsed":308746,"subject_id":"87136","group":"Group2"},{"rt":null,"stimulus":"<p style=\"font-size: 50px; margin: 0; text-align: center;\">+</p>","response":null,"trial_type":"html-keyboard-response","trial_index":160,"plugin_version":"2.1.0","time_elapsed":309749,"subject_id":"87136","group":"Group2"},{"task":"memory_phase","broad_category":"S","image_png":"S_Rock Salt_02.png","image_id":434,"category_name":"Rock Salt","category":28,"distinct_rating":5.13,"rt":null,"stimulus":"Stimuli_Rocks480/S_Rock Salt_02.png","response":null,"trial_type":"image-keyboard-response","trial_index":161,"plugin_version":"2.1.0","time_elapsed":312251,"subject_id":"87136","group":"Group2"},{"rt":null,"stimulus":"<p style=\"font-size: 50px; margin: 0; text-align: center;\">+</p>","response":null,"trial_type":"html-keyboard-response","trial_index":162,"plugin_version":"2.1.0","time_elapsed":313254,"subject_id":"87136","group":"Group2"},{"task":"memory_phase","broad_category":"M","image_png":"M_Migmatite_02.png","image_id":242,"category_name":"Migmatite","category":16,"distinct_rating":3.98,"rt":null,"stimulus":"Stimuli_Rocks480/M_Migmatite_02.png","response":null,"trial_type":"image-keyboard-response","trial_index":163,"plugin_version":"2.1.0","time_elapsed":315758,"subject_id":"87136","group":"Group2"},{"rt":null,"stimulus":"<p style=\"font-size: 50px; margin: 0; text-align: center;\">+</p>","response":null,"trial_type":"html-keyboard-response","trial_index":164,"plugin_version":"2.1.0","time_elapsed":316760,"subject_id":"87136","group":"Group2"},{"task":"memory_phase","broad_category":"I","image_png":"I_Andesite_05.png","image_id":5,"category_name":"Andesite","category":1,"distinct_rating":3.32,"rt":null,"stimulus":"Stimuli_Rocks480/I_Andesite_05.png","response":null,"trial_type":"image-keyboard-response","trial_index":165,"plugin_version":"2.1.0","time_elapsed":319263,"subject_id":"87136","group":"Group2"},{"rt":null,"stimulus":"<p style=\"font-size: 50px; margin: 0; text-align: center;\">+</p>","response":null,"trial_type":"html-keyboard-response","trial_index":166,"plugin_version":"2.1.0","time_elapsed":320266,"subject_id":"87136","group":"Group2"},{"task":"memory_phase","broad_category":"I","image_png":"I_Obsidian_03.png","image_id":83,"category_name":"Obsidian","category":6,"distinct_rating":4.51,"rt":null,"stimulus":"Stimuli_Rocks480/I_Obsidian_03.png","response":null,"trial_type":"image-keyboard-response","trial_index":167,"plugin_version":"2.1.0","time_elapsed":322769,"subject_id":"87136","group":"Group2"},{"rt":null,"stimulus":"<p style=\"font-size: 50px; margin: 0; text-align: center;\">+</p>","response":null,"trial_type":"html-keyboard-response","trial_index":168,"plugin_version":"2.1.0","time_elapsed":323772,"subject_id":"87136","group":"Group2"},{"task":"memory_phase","broad_category":"I","image_png":"I_Gabbro_01.png","image_id":49,"category_name":"Gabbro","category":4,"distinct_rating":3.61,"rt":null,"stimulus":"Stimuli_Rocks480/I_Gabbro_01.png","response":null,"trial_type":"image-keyboard-response","trial_index":169,"plugin_version":"2.1.0","time_elapsed":326275,"subject_id":"87136","group":"Group2"},{"rt":null,"stimulus":"<p style=\"font-size: 50px; margin: 0; text-align: center;\">+</p>","response":null,"trial_type":"html-keyboard-response","trial_index":170,"plugin_version":"2.1.0","time_elapsed":327278,"subject_id":"87136","group":"Group2"},{"task":"memory_phase","broad_category":"M","image_png":"M_Anthracite_16.png","image_id":192,"category_name":"Anthracite","category":12,"distinct_rating":5.66,"rt":null,"stimulus":"Stimuli_Rocks480/M_Anthracite_16.png","response":null,"trial_type":"image-keyboard-response","trial_index":171,"plugin_version":"2.1.0","time_elapsed":329782,"subject_id":"87136","group":"Group2"},{"rt":null,"stimulus":"<p style=\"font-size: 50px; margin: 0; text-align: center;\">+</p>","response":null,"trial_type":"html-keyboard-response","trial_index":172,"plugin_version":"2.1.0","time_elapsed":330785,"subject_id":"87136","group":"Group2"},{"task":"memory_phase","broad_category":"M","image_png":"M_Phyllite_04.png","image_id":260,"category_name":"Phyllite","category":17,"distinct_rating":4.37,"rt":null,"stimulus":"Stimuli_Rocks480/M_Phyllite_04.png","response":null,"trial_type":"image-keyboard-response","trial_index":173,"plugin_version":"2.1.0","time_elapsed":333288,"subject_id":"87136","group":"Group2"},{"rt":null,"stimulus":"<p style=\"font-size: 50px; margin: 0; text-align: center;\">+</p>","response":null,"trial_type":"html-keyboard-response","trial_index":174,"plugin_version":"2.1.0","time_elapsed":334291,"subject_id":"87136","group":"Group2"},{"task":"memory_phase","broad_category":"S","image_png":"S_Bituminous Coal_16.png","image_id":336,"category_name":"Bituminous Coal","category":21,"distinct_rating":4.3,"rt":null,"stimulus":"Stimuli_Rocks480/S_Bituminous Coal_16.png","response":null,"trial_type":"image-keyboard-response","trial_index":175,"plugin_version":"2.1.0","time_elapsed":336794,"subject_id":"87136","group":"Group2"},{"rt":null,"stimulus":"<p style=\"font-size: 50px; margin: 0; text-align: center;\">+</p>","response":null,"trial_type":"html-keyboard-response","trial_index":176,"plugin_version":"2.1.0","time_elapsed":337797,"subject_id":"87136","group":"Group2"},{"task":"memory_phase","broad_category":"I","image_png":"I_Peridotite_13.png","image_id":125,"category_name":"Peridotite","category":8,"distinct_rating":7.28,"rt":null,"stimulus":"Stimuli_Rocks480/I_Peridotite_13.png","response":null,"trial_type":"image-keyboard-response","trial_index":177,"plugin_version":"2.1.0","time_elapsed":340302,"subject_id":"87136","group":"Group2"},{"rt":null,"stimulus":"<p style=\"font-size: 50px; margin: 0; text-align: center;\">+</p>","response":null,"trial_type":"html-keyboard-response","trial_index":178,"plugin_version":"2.1.0","time_elapsed":341304,"subject_id":"87136","group":"Group2"},{"task":"memory_phase","broad_category":"I","image_png":"I_Granite_02.png","image_id":66,"category_name":"Granite","category":5,"distinct_rating":3.29,"rt":null,"stimulus":"Stimuli_Rocks480/I_Granite_02.png","response":null,"trial_type":"image-keyboard-response","trial_index":179,"plugin_version":"2.1.0","time_elapsed":343808,"subject_id":"87136","group":"Group2"},{"rt":null,"stimulus":"<p style=\"font-size: 50px; margin: 0; text-align: center;\">+</p>","response":null,"trial_type":"html-keyboard-response","trial_index":180,"plugin_version":"2.1.0","time_elapsed":344810,"subject_id":"87136","group":"Group2"},{"task":"memory_phase","broad_category":"I","image_png":"I_Diorite_04.png","image_id":36,"category_name":"Diorite","category":3,"distinct_rating":2.98,"rt":null,"stimulus":"Stimuli_Rocks480/I_Diorite_04.png","response":null,"trial_type":"image-keyboard-response","trial_index":181,"plugin_version":"2.1.0","time_elapsed":347313,"subject_id":"87136","group":"Group2"},{"rt":null,"stimulus":"<p style=\"font-size: 50px; margin: 0; text-align: center;\">+</p>","response":null,"trial_type":"html-keyboard-response","trial_index":182,"plugin_version":"2.1.0","time_elapsed":348315,"subject_id":"87136","group":"Group2"},{"task":"memory_phase","broad_category":"S","image_png":"S_Rock Gypsum_15.png","image_id":431,"category_name":"Rock Gypsum","category":27,"distinct_rating":6.11,"rt":null,"stimulus":"Stimuli_Rocks480/S_Rock Gypsum_15.png","response":null,"trial_type":"image-keyboard-response","trial_index":183,"plugin_version":"2.1.0","time_elapsed":350818,"subject_id":"87136","group":"Group2"},{"rt":null,"stimulus":"<p style=\"font-size: 50px; margin: 0; text-align: center;\">+</p>","response":null,"trial_type":"html-keyboard-response","trial_index":184,"plugin_version":"2.1.0","time_elapsed":351820,"subject_id":"87136","group":"Group2"},{"task":"memory_phase","broad_category":"I","image_png":"I_Gabbro_02.png","image_id":50,"category_name":"Gabbro","category":4,"distinct_rating":2.73,"rt":null,"stimulus":"Stimuli_Rocks480/I_Gabbro_02.png","response":null,"trial_type":"image-keyboard-response","trial_index":185,"plugin_version":"2.1.0","time_elapsed":354324,"subject_id":"87136","group":"Group2"},{"rt":null,"stimulus":"<p style=\"font-size: 50px; margin: 0; text-align: center;\">+</p>","response":null,"trial_type":"html-keyboard-response","trial_index":186,"plugin_version":"2.1.0","time_elapsed":355326,"subject_id":"87136","group":"Group2"},{"task":"memory_phase","broad_category":"S","image_png":"S_Rock Gypsum_08.png","image_id":424,"category_name":"Rock Gypsum","category":27,"distinct_rating":5.57,"rt":null,"stimulus":"Stimuli_Rocks480/S_Rock Gypsum_08.png","response":null,"trial_type":"image-keyboard-response","trial_index":187,"plugin_version":"2.1.0","time_elapsed":357829,"subject_id":"87136","group":"Group2"},{"rt":null,"stimulus":"<p style=\"font-size: 50px; margin: 0; text-align: center;\">+</p>","response":null,"trial_type":"html-keyboard-response","trial_index":188,"plugin_version":"2.1.0","time_elapsed":358831,"subject_id":"87136","group":"Group2"},{"task":"memory_phase","broad_category":"S","image_png":"S_Shale_14.png","image_id":478,"category_name":"Shale","category":30,"distinct_rating":2.68,"rt":null,"stimulus":"Stimuli_Rocks480/S_Shale_14.png","response":null,"trial_type":"image-keyboard-response","trial_index":189,"plugin_version":"2.1.0","time_elapsed":361334,"subject_id":"87136","group":"Group2"},{"rt":null,"stimulus":"<p style=\"font-size: 50px; margin: 0; text-align: center;\">+</p>","response":null,"trial_type":"html-keyboard-response","trial_index":190,"plugin_version":"2.1.0","time_elapsed":362337,"subject_id":"87136","group":"Group2"},{"task":"memory_phase","broad_category":"M","image_png":"M_Hornfels_02.png","image_id":210,"category_name":"Hornfels","category":14,"distinct_rating":2,"rt":null,"stimulus":"Stimuli_Rocks480/M_Hornfels_02.png","response":null,"trial_type":"image-keyboard-response","trial_index":191,"plugin_version":"2.1.0","time_elapsed":364845,"subject_id":"87136","group":"Group2"},{"rt":null,"stimulus":"<p style=\"font-size: 50px; margin: 0; text-align: center;\">+</p>","response":null,"trial_type":"html-keyboard-response","trial_index":192,"plugin_version":"2.1.0","time_elapsed":365847,"subject_id":"87136","group":"Group2"},{"task":"memory_phase","broad_category":"S","image_png":"S_Conglomerate_06.png","image_id":374,"category_name":"Conglomerate","category":24,"distinct_rating":4.24,"rt":null,"stimulus":"Stimuli_Rocks480/S_Conglomerate_06.png","response":null,"trial_type":"image-keyboard-response","trial_index":193,"plugin_version":"2.1.0","time_elapsed":368351,"subject_id":"87136","group":"Group2"},{"rt":null,"stimulus":"<p style=\"font-size: 50px; margin: 0; text-align: center;\">+</p>","response":null,"trial_type":"html-keyboard-response","trial_index":194,"plugin_version":"2.1.0","time_elapsed":369354,"subject_id":"87136","group":"Group2"},{"task":"memory_phase","broad_category":"S","image_png":"S_Bituminous Coal_12.png","image_id":332,"category_name":"Bituminous Coal","category":21,"distinct_rating":3.5,"rt":null,"stimulus":"Stimuli_Rocks480/S_Bituminous Coal_12.png","response":null,"trial_type":"image-keyboard-response","trial_index":195,"plugin_version":"2.1.0","time_elapsed":371857,"subject_id":"87136","group":"Group2"},{"rt":null,"stimulus":"<p style=\"font-size: 50px; margin: 0; text-align: center;\">+</p>","response":null,"trial_type":"html-keyboard-response","trial_index":196,"plugin_version":"2.1.0","time_elapsed":372860,"subject_id":"87136","group":"Group2"},{"task":"memory_phase","broad_category":"M","image_png":"M_Marble_14.png","image_id":238,"category_name":"Marble","category":15,"distinct_rating":3.31,"rt":null,"stimulus":"Stimuli_Rocks480/M_Marble_14.png","response":null,"trial_type":"image-keyboard-response","trial_index":197,"plugin_version":"2.1.0","time_elapsed":375364,"subject_id":"87136","group":"Group2"},{"rt":15014,"stimulus":"<p style=\"font-size: 35px;\">Press SPACE to continue study phase</p>","response":" ","trial_type":"html-keyboard-response","trial_index":198,"plugin_version":"2.1.0","time_elapsed":390380,"subject_id":"87136","group":"Group2"},{"rt":null,"stimulus":"<p style=\"font-size: 50px; margin: 0; text-align: center;\">+</p>","response":null,"trial_type":"html-keyboard-response","trial_index":199,"plugin_version":"2.1.0","time_elapsed":391382,"subject_id":"87136","group":"Group2"},{"task":"memory_phase","broad_category":"M","image_png":"M_Phyllite_07.png","image_id":263,"category_name":"Phyllite","category":17,"distinct_rating":2.59,"rt":null,"stimulus":"Stimuli_Rocks480/M_Phyllite_07.png","response":null,"trial_type":"image-keyboard-response","trial_index":200,"plugin_version":"2.1.0","time_elapsed":393886,"subject_id":"87136","group":"Group2"},{"rt":null,"stimulus":"<p style=\"font-size: 50px; margin: 0; text-align: center;\">+</p>","response":null,"trial_type":"html-keyboard-response","trial_index":201,"plugin_version":"2.1.0","time_elapsed":394888,"subject_id":"87136","group":"Group2"},{"task":"memory_phase","broad_category":"I","image_png":"I_Pegmatite_02.png","image_id":98,"category_name":"Pegmatite","category":7,"distinct_rating":6.37,"rt":null,"stimulus":"Stimuli_Rocks480/I_Pegmatite_02.png","response":null,"trial_type":"image-keyboard-response","trial_index":202,"plugin_version":"2.1.0","time_elapsed":397392,"subject_id":"87136","group":"Group2"},{"rt":null,"stimulus":"<p style=\"font-size: 50px; margin: 0; text-align: center;\">+</p>","response":null,"trial_type":"html-keyboard-response","trial_index":203,"plugin_version":"2.1.0","time_elapsed":398395,"subject_id":"87136","group":"Group2"},{"task":"memory_phase","broad_category":"S","image_png":"S_Breccia_05.png","image_id":341,"category_name":"Breccia","category":22,"distinct_rating":6.25,"rt":null,"stimulus":"Stimuli_Rocks480/S_Breccia_05.png","response":null,"trial_type":"image-keyboard-response","trial_index":204,"plugin_version":"2.1.0","time_elapsed":400899,"subject_id":"87136","group":"Group2"},{"rt":null,"stimulus":"<p style=\"font-size: 50px; margin: 0; text-align: center;\">+</p>","response":null,"trial_type":"html-keyboard-response","trial_index":205,"plugin_version":"2.1.0","time_elapsed":401902,"subject_id":"87136","group":"Group2"},{"task":"memory_phase","broad_category":"S","image_png":"S_Sandstone_07.png","image_id":455,"category_name":"Sandstone","category":29,"distinct_rating":5.02,"rt":null,"stimulus":"Stimuli_Rocks480/S_Sandstone_07.png","response":null,"trial_type":"image-keyboard-response","trial_index":206,"plugin_version":"2.1.0","time_elapsed":404406,"subject_id":"87136","group":"Group2"},{"rt":null,"stimulus":"<p style=\"font-size: 50px; margin: 0; text-align: center;\">+</p>","response":null,"trial_type":"html-keyboard-response","trial_index":207,"plugin_version":"2.1.0","time_elapsed":405409,"subject_id":"87136","group":"Group2"},{"task":"memory_phase","broad_category":"S","image_png":"S_Sandstone_11.png","image_id":459,"category_name":"Sandstone","category":29,"distinct_rating":1.82,"rt":null,"stimulus":"Stimuli_Rocks480/S_Sandstone_11.png","response":null,"trial_type":"image-keyboard-response","trial_index":208,"plugin_version":"2.1.0","time_elapsed":407913,"subject_id":"87136","group":"Group2"},{"rt":null,"stimulus":"<p style=\"font-size: 50px; margin: 0; text-align: center;\">+</p>","response":null,"trial_type":"html-keyboard-response","trial_index":209,"plugin_version":"2.1.0","time_elapsed":408916,"subject_id":"87136","group":"Group2"},{"task":"memory_phase","broad_category":"S","image_png":"S_Micrite_04.png","image_id":404,"category_name":"Micrite","category":26,"distinct_rating":3.76,"rt":null,"stimulus":"Stimuli_Rocks480/S_Micrite_04.png","response":null,"trial_type":"image-keyboard-response","trial_index":210,"plugin_version":"2.1.0","time_elapsed":411420,"subject_id":"87136","group":"Group2"},{"rt":null,"stimulus":"<p style=\"font-size: 50px; margin: 0; text-align: center;\">+</p>","response":null,"trial_type":"html-keyboard-response","trial_index":211,"plugin_version":"2.1.0","time_elapsed":412423,"subject_id":"87136","group":"Group2"},{"task":"memory_phase","broad_category":"S","image_png":"S_Rock Salt_04.png","image_id":436,"category_name":"Rock Salt","category":28,"distinct_rating":7.89,"rt":null,"stimulus":"Stimuli_Rocks480/S_Rock Salt_04.png","response":null,"trial_type":"image-keyboard-response","trial_index":212,"plugin_version":"2.1.0","time_elapsed":414926,"subject_id":"87136","group":"Group2"},{"rt":null,"stimulus":"<p style=\"font-size: 50px; margin: 0; text-align: center;\">+</p>","response":null,"trial_type":"html-keyboard-response","trial_index":213,"plugin_version":"2.1.0","time_elapsed":415928,"subject_id":"87136","group":"Group2"},{"task":"memory_phase","broad_category":"M","image_png":"M_Quartzite_15.png","image_id":287,"category_name":"Quartzite","category":18,"distinct_rating":2.19,"rt":null,"stimulus":"Stimuli_Rocks480/M_Quartzite_15.png","response":null,"trial_type":"image-keyboard-response","trial_index":214,"plugin_version":"2.1.0","time_elapsed":418432,"subject_id":"87136","group":"Group2"},{"rt":null,"stimulus":"<p style=\"font-size: 50px; margin: 0; text-align: center;\">+</p>","response":null,"trial_type":"html-keyboard-response","trial_index":215,"plugin_version":"2.1.0","time_elapsed":419435,"subject_id":"87136","group":"Group2"},{"task":"memory_phase","broad_category":"S","image_png":"S_Shale_03.png","image_id":467,"category_name":"Shale","category":30,"distinct_rating":1.95,"rt":null,"stimulus":"Stimuli_Rocks480/S_Shale_03.png","response":null,"trial_type":"image-keyboard-response","trial_index":216,"plugin_version":"2.1.0","time_elapsed":421939,"subject_id":"87136","group":"Group2"},{"rt":null,"stimulus":"<p style=\"font-size: 50px; margin: 0; text-align: center;\">+</p>","response":null,"trial_type":"html-keyboard-response","trial_index":217,"plugin_version":"2.1.0","time_elapsed":422941,"subject_id":"87136","group":"Group2"},{"task":"memory_phase","broad_category":"S","image_png":"S_Rock Gypsum_02.png","image_id":418,"category_name":"Rock Gypsum","category":27,"distinct_rating":5.19,"rt":null,"stimulus":"Stimuli_Rocks480/S_Rock Gypsum_02.png","response":null,"trial_type":"image-keyboard-response","trial_index":218,"plugin_version":"2.1.0","time_elapsed":425445,"subject_id":"87136","group":"Group2"},{"rt":null,"stimulus":"<p style=\"font-size: 50px; margin: 0; text-align: center;\">+</p>","response":null,"trial_type":"html-keyboard-response","trial_index":219,"plugin_version":"2.1.0","time_elapsed":426448,"subject_id":"87136","group":"Group2"},{"task":"memory_phase","broad_category":"I","image_png":"I_Diorite_05.png","image_id":37,"category_name":"Diorite","category":3,"distinct_rating":3.08,"rt":null,"stimulus":"Stimuli_Rocks480/I_Diorite_05.png","response":null,"trial_type":"image-keyboard-response","trial_index":220,"plugin_version":"2.1.0","time_elapsed":428952,"subject_id":"87136","group":"Group2"},{"rt":null,"stimulus":"<p style=\"font-size: 50px; margin: 0; text-align: center;\">+</p>","response":null,"trial_type":"html-keyboard-response","trial_index":221,"plugin_version":"2.1.0","time_elapsed":429955,"subject_id":"87136","group":"Group2"},{"task":"memory_phase","broad_category":"I","image_png":"I_Obsidian_16.png","image_id":96,"category_name":"Obsidian","category":6,"distinct_rating":5.44,"rt":null,"stimulus":"Stimuli_Rocks480/I_Obsidian_16.png","response":null,"trial_type":"image-keyboard-response","trial_index":222,"plugin_version":"2.1.0","time_elapsed":432457,"subject_id":"87136","group":"Group2"},{"rt":null,"stimulus":"<p style=\"font-size: 50px; margin: 0; text-align: center;\">+</p>","response":null,"trial_type":"html-keyboard-response","trial_index":223,"plugin_version":"2.1.0","time_elapsed":433460,"subject_id":"87136","group":"Group2"},{"task":"memory_phase","broad_category":"M","image_png":"M_Phyllite_05.png","image_id":261,"category_name":"Phyllite","category":17,"distinct_rating":2.14,"rt":null,"stimulus":"Stimuli_Rocks480/M_Phyllite_05.png","response":null,"trial_type":"image-keyboard-response","trial_index":224,"plugin_version":"2.1.0","time_elapsed":435964,"subject_id":"87136","group":"Group2"},{"rt":null,"stimulus":"<p style=\"font-size: 50px; margin: 0; text-align: center;\">+</p>","response":null,"trial_type":"html-keyboard-response","trial_index":225,"plugin_version":"2.1.0","time_elapsed":436966,"subject_id":"87136","group":"Group2"},{"task":"memory_phase","broad_category":"S","image_png":"S_Breccia_06.png","image_id":342,"category_name":"Breccia","category":22,"distinct_rating":5.23,"rt":null,"stimulus":"Stimuli_Rocks480/S_Breccia_06.png","response":null,"trial_type":"image-keyboard-response","trial_index":226,"plugin_version":"2.1.0","time_elapsed":439470,"subject_id":"87136","group":"Group2"},{"rt":null,"stimulus":"<p style=\"font-size: 50px; margin: 0; text-align: center;\">+</p>","response":null,"trial_type":"html-keyboard-response","trial_index":227,"plugin_version":"2.1.0","time_elapsed":440473,"subject_id":"87136","group":"Group2"},{"task":"memory_phase","broad_category":"I","image_png":"I_Granite_08.png","image_id":72,"category_name":"Granite","category":5,"distinct_rating":3.95,"rt":null,"stimulus":"Stimuli_Rocks480/I_Granite_08.png","response":null,"trial_type":"image-keyboard-response","trial_index":228,"plugin_version":"2.1.0","time_elapsed":442976,"subject_id":"87136","group":"Group2"},{"rt":null,"stimulus":"<p style=\"font-size: 50px; margin: 0; text-align: center;\">+</p>","response":null,"trial_type":"html-keyboard-response","trial_index":229,"plugin_version":"2.1.0","time_elapsed":443979,"subject_id":"87136","group":"Group2"},{"task":"memory_phase","broad_category":"I","image_png":"I_Diorite_06.png","image_id":38,"category_name":"Diorite","category":3,"distinct_rating":3.72,"rt":null,"stimulus":"Stimuli_Rocks480/I_Diorite_06.png","response":null,"trial_type":"image-keyboard-response","trial_index":230,"plugin_version":"2.1.0","time_elapsed":446482,"subject_id":"87136","group":"Group2"},{"rt":null,"stimulus":"<p style=\"font-size: 50px; margin: 0; text-align: center;\">+</p>","response":null,"trial_type":"html-keyboard-response","trial_index":231,"plugin_version":"2.1.0","time_elapsed":447485,"subject_id":"87136","group":"Group2"},{"task":"memory_phase","broad_category":"I","image_png":"I_Peridotite_16.png","image_id":128,"category_name":"Peridotite","category":8,"distinct_rating":4.48,"rt":null,"stimulus":"Stimuli_Rocks480/I_Peridotite_16.png","response":null,"trial_type":"image-keyboard-response","trial_index":232,"plugin_version":"2.1.0","time_elapsed":449988,"subject_id":"87136","group":"Group2"},{"rt":null,"stimulus":"<p style=\"font-size: 50px; margin: 0; text-align: center;\">+</p>","response":null,"trial_type":"html-keyboard-response","trial_index":233,"plugin_version":"2.1.0","time_elapsed":450991,"subject_id":"87136","group":"Group2"},{"task":"memory_phase","broad_category":"M","image_png":"M_Quartzite_02.png","image_id":274,"category_name":"Quartzite","category":18,"distinct_rating":2.52,"rt":null,"stimulus":"Stimuli_Rocks480/M_Quartzite_02.png","response":null,"trial_type":"image-keyboard-response","trial_index":234,"plugin_version":"2.1.0","time_elapsed":453496,"subject_id":"87136","group":"Group2"},{"rt":null,"stimulus":"<p style=\"font-size: 50px; margin: 0; text-align: center;\">+</p>","response":null,"trial_type":"html-keyboard-response","trial_index":235,"plugin_version":"2.1.0","time_elapsed":454498,"subject_id":"87136","group":"Group2"},{"task":"memory_phase","broad_category":"M","image_png":"M_Quartzite_13.png","image_id":285,"category_name":"Quartzite","category":18,"distinct_rating":2.27,"rt":null,"stimulus":"Stimuli_Rocks480/M_Quartzite_13.png","response":null,"trial_type":"image-keyboard-response","trial_index":236,"plugin_version":"2.1.0","time_elapsed":457002,"subject_id":"87136","group":"Group2"},{"rt":null,"stimulus":"<p style=\"font-size: 50px; margin: 0; text-align: center;\">+</p>","response":null,"trial_type":"html-keyboard-response","trial_index":237,"plugin_version":"2.1.0","time_elapsed":458005,"subject_id":"87136","group":"Group2"},{"task":"memory_phase","broad_category":"I","image_png":"I_Gabbro_07.png","image_id":55,"category_name":"Gabbro","category":4,"distinct_rating":4.29,"rt":null,"stimulus":"Stimuli_Rocks480/I_Gabbro_07.png","response":null,"trial_type":"image-keyboard-response","trial_index":238,"plugin_version":"2.1.0","time_elapsed":460509,"subject_id":"87136","group":"Group2"},{"rt":null,"stimulus":"<p style=\"font-size: 50px; margin: 0; text-align: center;\">+</p>","response":null,"trial_type":"html-keyboard-response","trial_index":239,"plugin_version":"2.1.0","time_elapsed":461512,"subject_id":"87136","group":"Group2"},{"task":"memory_phase","broad_category":"S","image_png":"S_Bituminous Coal_01.png","image_id":321,"category_name":"Bituminous Coal","category":21,"distinct_rating":4.17,"rt":null,"stimulus":"Stimuli_Rocks480/S_Bituminous Coal_01.png","response":null,"trial_type":"image-keyboard-response","trial_index":240,"plugin_version":"2.1.0","time_elapsed":464016,"subject_id":"87136","group":"Group2"},{"rt":null,"stimulus":"<p style=\"font-size: 50px; margin: 0; text-align: center;\">+</p>","response":null,"trial_type":"html-keyboard-response","trial_index":241,"plugin_version":"2.1.0","time_elapsed":465019,"subject_id":"87136","group":"Group2"},{"task":"memory_phase","broad_category":"M","image_png":"M_Schist_01.png","image_id":289,"category_name":"Schist","category":19,"distinct_rating":2.56,"rt":null,"stimulus":"Stimuli_Rocks480/M_Schist_01.png","response":null,"trial_type":"image-keyboard-response","trial_index":242,"plugin_version":"2.1.0","time_elapsed":467522,"subject_id":"87136","group":"Group2"},{"rt":null,"stimulus":"<p style=\"font-size: 50px; margin: 0; text-align: center;\">+</p>","response":null,"trial_type":"html-keyboard-response","trial_index":243,"plugin_version":"2.1.0","time_elapsed":468525,"subject_id":"87136","group":"Group2"},{"task":"memory_phase","broad_category":"S","image_png":"S_Bituminous Coal_07.png","image_id":327,"category_name":"Bituminous Coal","category":21,"distinct_rating":3,"rt":null,"stimulus":"Stimuli_Rocks480/S_Bituminous Coal_07.png","response":null,"trial_type":"image-keyboard-response","trial_index":244,"plugin_version":"2.1.0","time_elapsed":471029,"subject_id":"87136","group":"Group2"},{"rt":null,"stimulus":"<p style=\"font-size: 50px; margin: 0; text-align: center;\">+</p>","response":null,"trial_type":"html-keyboard-response","trial_index":245,"plugin_version":"2.1.0","time_elapsed":472032,"subject_id":"87136","group":"Group2"},{"task":"memory_phase","broad_category":"M","image_png":"M_Marble_16.png","image_id":240,"category_name":"Marble","category":15,"distinct_rating":2.57,"rt":null,"stimulus":"Stimuli_Rocks480/M_Marble_16.png","response":null,"trial_type":"image-keyboard-response","trial_index":246,"plugin_version":"2.1.0","time_elapsed":474535,"subject_id":"87136","group":"Group2"},{"rt":null,"stimulus":"<p style=\"font-size: 50px; margin: 0; text-align: center;\">+</p>","response":null,"trial_type":"html-keyboard-response","trial_index":247,"plugin_version":"2.1.0","time_elapsed":475538,"subject_id":"87136","group":"Group2"},{"task":"memory_phase","broad_category":"I","image_png":"I_Basalt_12.png","image_id":28,"category_name":"Basalt","category":2,"distinct_rating":4.08,"rt":null,"stimulus":"Stimuli_Rocks480/I_Basalt_12.png","response":null,"trial_type":"image-keyboard-response","trial_index":248,"plugin_version":"2.1.0","time_elapsed":478041,"subject_id":"87136","group":"Group2"},{"rt":null,"stimulus":"<p style=\"font-size: 50px; margin: 0; text-align: center;\">+</p>","response":null,"trial_type":"html-keyboard-response","trial_index":249,"plugin_version":"2.1.0","time_elapsed":479043,"subject_id":"87136","group":"Group2"},{"task":"memory_phase","broad_category":"S","image_png":"S_Rock Salt_16.png","image_id":448,"category_name":"Rock Salt","category":28,"distinct_rating":6.23,"rt":null,"stimulus":"Stimuli_Rocks480/S_Rock Salt_16.png","response":null,"trial_type":"image-keyboard-response","trial_index":250,"plugin_version":"2.1.0","time_elapsed":481546,"subject_id":"87136","group":"Group2"},{"rt":null,"stimulus":"<p style=\"font-size: 50px; margin: 0; text-align: center;\">+</p>","response":null,"trial_type":"html-keyboard-response","trial_index":251,"plugin_version":"2.1.0","time_elapsed":482549,"subject_id":"87136","group":"Group2"},{"task":"memory_phase","broad_category":"M","image_png":"M_Phyllite_11.png","image_id":267,"category_name":"Phyllite","category":17,"distinct_rating":3.56,"rt":null,"stimulus":"Stimuli_Rocks480/M_Phyllite_11.png","response":null,"trial_type":"image-keyboard-response","trial_index":252,"plugin_version":"2.1.0","time_elapsed":485052,"subject_id":"87136","group":"Group2"},{"rt":null,"stimulus":"<p style=\"font-size: 50px; margin: 0; text-align: center;\">+</p>","response":null,"trial_type":"html-keyboard-response","trial_index":253,"plugin_version":"2.1.0","time_elapsed":486055,"subject_id":"87136","group":"Group2"},{"task":"memory_phase","broad_category":"I","image_png":"I_Basalt_10.png","image_id":26,"category_name":"Basalt","category":2,"distinct_rating":2.76,"rt":null,"stimulus":"Stimuli_Rocks480/I_Basalt_10.png","response":null,"trial_type":"image-keyboard-response","trial_index":254,"plugin_version":"2.1.0","time_elapsed":488558,"subject_id":"87136","group":"Group2"},{"rt":null,"stimulus":"<p style=\"font-size: 50px; margin: 0; text-align: center;\">+</p>","response":null,"trial_type":"html-keyboard-response","trial_index":255,"plugin_version":"2.1.0","time_elapsed":489561,"subject_id":"87136","group":"Group2"},{"task":"memory_phase","broad_category":"I","image_png":"I_Rhyolite_11.png","image_id":155,"category_name":"Rhyolite","category":10,"distinct_rating":1.73,"rt":null,"stimulus":"Stimuli_Rocks480/I_Rhyolite_11.png","response":null,"trial_type":"image-keyboard-response","trial_index":256,"plugin_version":"2.1.0","time_elapsed":492065,"subject_id":"87136","group":"Group2"},{"rt":null,"stimulus":"<p style=\"font-size: 50px; margin: 0; text-align: center;\">+</p>","response":null,"trial_type":"html-keyboard-response","trial_index":257,"plugin_version":"2.1.0","time_elapsed":493068,"subject_id":"87136","group":"Group2"},{"task":"memory_phase","broad_category":"M","image_png":"M_Slate_14.png","image_id":318,"category_name":"Slate","category":20,"distinct_rating":2.58,"rt":null,"stimulus":"Stimuli_Rocks480/M_Slate_14.png","response":null,"trial_type":"image-keyboard-response","trial_index":258,"plugin_version":"2.1.0","time_elapsed":495571,"subject_id":"87136","group":"Group2"},{"rt":null,"stimulus":"<p style=\"font-size: 50px; margin: 0; text-align: center;\">+</p>","response":null,"trial_type":"html-keyboard-response","trial_index":259,"plugin_version":"2.1.0","time_elapsed":496574,"subject_id":"87136","group":"Group2"},{"task":"memory_phase","broad_category":"M","image_png":"M_Quartzite_03.png","image_id":275,"category_name":"Quartzite","category":18,"distinct_rating":3.6,"rt":null,"stimulus":"Stimuli_Rocks480/M_Quartzite_03.png","response":null,"trial_type":"image-keyboard-response","trial_index":260,"plugin_version":"2.1.0","time_elapsed":499078,"subject_id":"87136","group":"Group2"},{"rt":null,"stimulus":"<p style=\"font-size: 50px; margin: 0; text-align: center;\">+</p>","response":null,"trial_type":"html-keyboard-response","trial_index":261,"plugin_version":"2.1.0","time_elapsed":500081,"subject_id":"87136","group":"Group2"},{"task":"memory_phase","broad_category":"I","image_png":"I_Obsidian_09.png","image_id":89,"category_name":"Obsidian","category":6,"distinct_rating":5.85,"rt":null,"stimulus":"Stimuli_Rocks480/I_Obsidian_09.png","response":null,"trial_type":"image-keyboard-response","trial_index":262,"plugin_version":"2.1.0","time_elapsed":502585,"subject_id":"87136","group":"Group2"},{"rt":null,"stimulus":"<p style=\"font-size: 50px; margin: 0; text-align: center;\">+</p>","response":null,"trial_type":"html-keyboard-response","trial_index":263,"plugin_version":"2.1.0","time_elapsed":503588,"subject_id":"87136","group":"Group2"},{"task":"memory_phase","broad_category":"I","image_png":"I_Basalt_14.png","image_id":30,"category_name":"Basalt","category":2,"distinct_rating":4,"rt":null,"stimulus":"Stimuli_Rocks480/I_Basalt_14.png","response":null,"trial_type":"image-keyboard-response","trial_index":264,"plugin_version":"2.1.0","time_elapsed":506091,"subject_id":"87136","group":"Group2"},{"rt":null,"stimulus":"<p style=\"font-size: 50px; margin: 0; text-align: center;\">+</p>","response":null,"trial_type":"html-keyboard-response","trial_index":265,"plugin_version":"2.1.0","time_elapsed":507094,"subject_id":"87136","group":"Group2"},{"task":"memory_phase","broad_category":"S","image_png":"S_Micrite_11.png","image_id":411,"category_name":"Micrite","category":26,"distinct_rating":1.87,"rt":null,"stimulus":"Stimuli_Rocks480/S_Micrite_11.png","response":null,"trial_type":"image-keyboard-response","trial_index":266,"plugin_version":"2.1.0","time_elapsed":509597,"subject_id":"87136","group":"Group2"},{"rt":null,"stimulus":"<p style=\"font-size: 50px; margin: 0; text-align: center;\">+</p>","response":null,"trial_type":"html-keyboard-response","trial_index":267,"plugin_version":"2.1.0","time_elapsed":510600,"subject_id":"87136","group":"Group2"},{"task":"memory_phase","broad_category":"M","image_png":"M_Gneiss_13.png","image_id":205,"category_name":"Gneiss","category":13,"distinct_rating":3.26,"rt":null,"stimulus":"Stimuli_Rocks480/M_Gneiss_13.png","response":null,"trial_type":"image-keyboard-response","trial_index":268,"plugin_version":"2.1.0","time_elapsed":513103,"subject_id":"87136","group":"Group2"},{"rt":null,"stimulus":"<p style=\"font-size: 50px; margin: 0; text-align: center;\">+</p>","response":null,"trial_type":"html-keyboard-response","trial_index":269,"plugin_version":"2.1.0","time_elapsed":514106,"subject_id":"87136","group":"Group2"},{"task":"memory_phase","broad_category":"I","image_png":"I_Granite_12.png","image_id":76,"category_name":"Granite","category":5,"distinct_rating":3.86,"rt":null,"stimulus":"Stimuli_Rocks480/I_Granite_12.png","response":null,"trial_type":"image-keyboard-response","trial_index":270,"plugin_version":"2.1.0","time_elapsed":516610,"subject_id":"87136","group":"Group2"},{"rt":null,"stimulus":"<p style=\"font-size: 50px; margin: 0; text-align: center;\">+</p>","response":null,"trial_type":"html-keyboard-response","trial_index":271,"plugin_version":"2.1.0","time_elapsed":517612,"subject_id":"87136","group":"Group2"},{"task":"memory_phase","broad_category":"I","image_png":"I_Basalt_06.png","image_id":22,"category_name":"Basalt","category":2,"distinct_rating":2.08,"rt":null,"stimulus":"Stimuli_Rocks480/I_Basalt_06.png","response":null,"trial_type":"image-keyboard-response","trial_index":272,"plugin_version":"2.1.0","time_elapsed":520116,"subject_id":"87136","group":"Group2"},{"rt":null,"stimulus":"<p style=\"font-size: 50px; margin: 0; text-align: center;\">+</p>","response":null,"trial_type":"html-keyboard-response","trial_index":273,"plugin_version":"2.1.0","time_elapsed":521119,"subject_id":"87136","group":"Group2"},{"task":"memory_phase","broad_category":"I","image_png":"I_Obsidian_07.png","image_id":87,"category_name":"Obsidian","category":6,"distinct_rating":7.28,"rt":null,"stimulus":"Stimuli_Rocks480/I_Obsidian_07.png","response":null,"trial_type":"image-keyboard-response","trial_index":274,"plugin_version":"2.1.0","time_elapsed":523622,"subject_id":"87136","group":"Group2"},{"rt":null,"stimulus":"<p style=\"font-size: 50px; margin: 0; text-align: center;\">+</p>","response":null,"trial_type":"html-keyboard-response","trial_index":275,"plugin_version":"2.1.0","time_elapsed":524625,"subject_id":"87136","group":"Group2"},{"task":"memory_phase","broad_category":"M","image_png":"M_Anthracite_04.png","image_id":180,"category_name":"Anthracite","category":12,"distinct_rating":6.25,"rt":null,"stimulus":"Stimuli_Rocks480/M_Anthracite_04.png","response":null,"trial_type":"image-keyboard-response","trial_index":276,"plugin_version":"2.1.0","time_elapsed":527129,"subject_id":"87136","group":"Group2"},{"rt":null,"stimulus":"<p style=\"font-size: 50px; margin: 0; text-align: center;\">+</p>","response":null,"trial_type":"html-keyboard-response","trial_index":277,"plugin_version":"2.1.0","time_elapsed":528132,"subject_id":"87136","group":"Group2"},{"task":"memory_phase","broad_category":"S","image_png":"S_Conglomerate_14.png","image_id":382,"category_name":"Conglomerate","category":24,"distinct_rating":6.86,"rt":null,"stimulus":"Stimuli_Rocks480/S_Conglomerate_14.png","response":null,"trial_type":"image-keyboard-response","trial_index":278,"plugin_version":"2.1.0","time_elapsed":530635,"subject_id":"87136","group":"Group2"},{"rt":null,"stimulus":"<p style=\"font-size: 50px; margin: 0; text-align: center;\">+</p>","response":null,"trial_type":"html-keyboard-response","trial_index":279,"plugin_version":"2.1.0","time_elapsed":531638,"subject_id":"87136","group":"Group2"},{"task":"memory_phase","broad_category":"I","image_png":"I_Rhyolite_04.png","image_id":148,"category_name":"Rhyolite","category":10,"distinct_rating":3.73,"rt":null,"stimulus":"Stimuli_Rocks480/I_Rhyolite_04.png","response":null,"trial_type":"image-keyboard-response","trial_index":280,"plugin_version":"2.1.0","time_elapsed":534142,"subject_id":"87136","group":"Group2"},{"rt":null,"stimulus":"<p style=\"font-size: 50px; margin: 0; text-align: center;\">+</p>","response":null,"trial_type":"html-keyboard-response","trial_index":281,"plugin_version":"2.1.0","time_elapsed":535145,"subject_id":"87136","group":"Group2"},{"task":"memory_phase","broad_category":"S","image_png":"S_Shale_08.png","image_id":472,"category_name":"Shale","category":30,"distinct_rating":2.55,"rt":null,"stimulus":"Stimuli_Rocks480/S_Shale_08.png","response":null,"trial_type":"image-keyboard-response","trial_index":282,"plugin_version":"2.1.0","time_elapsed":537649,"subject_id":"87136","group":"Group2"},{"rt":null,"stimulus":"<p style=\"font-size: 50px; margin: 0; text-align: center;\">+</p>","response":null,"trial_type":"html-keyboard-response","trial_index":283,"plugin_version":"2.1.0","time_elapsed":538651,"subject_id":"87136","group":"Group2"},{"task":"memory_phase","broad_category":"S","image_png":"S_Chert_03.png","image_id":355,"category_name":"Chert","category":23,"distinct_rating":5.3,"rt":null,"stimulus":"Stimuli_Rocks480/S_Chert_03.png","response":null,"trial_type":"image-keyboard-response","trial_index":284,"plugin_version":"2.1.0","time_elapsed":541155,"subject_id":"87136","group":"Group2"},{"rt":null,"stimulus":"<p style=\"font-size: 50px; margin: 0; text-align: center;\">+</p>","response":null,"trial_type":"html-keyboard-response","trial_index":285,"plugin_version":"2.1.0","time_elapsed":542157,"subject_id":"87136","group":"Group2"},{"task":"memory_phase","broad_category":"M","image_png":"M_Schist_04.png","image_id":292,"category_name":"Schist","category":19,"distinct_rating":3.63,"rt":null,"stimulus":"Stimuli_Rocks480/M_Schist_04.png","response":null,"trial_type":"image-keyboard-response","trial_index":286,"plugin_version":"2.1.0","time_elapsed":544663,"subject_id":"87136","group":"Group2"},{"rt":null,"stimulus":"<p style=\"font-size: 50px; margin: 0; text-align: center;\">+</p>","response":null,"trial_type":"html-keyboard-response","trial_index":287,"plugin_version":"2.1.0","time_elapsed":545665,"subject_id":"87136","group":"Group2"},{"task":"memory_phase","broad_category":"I","image_png":"I_Pegmatite_14.png","image_id":110,"category_name":"Pegmatite","category":7,"distinct_rating":4.79,"rt":null,"stimulus":"Stimuli_Rocks480/I_Pegmatite_14.png","response":null,"trial_type":"image-keyboard-response","trial_index":288,"plugin_version":"2.1.0","time_elapsed":548169,"subject_id":"87136","group":"Group2"},{"rt":null,"stimulus":"<p style=\"font-size: 50px; margin: 0; text-align: center;\">+</p>","response":null,"trial_type":"html-keyboard-response","trial_index":289,"plugin_version":"2.1.0","time_elapsed":549171,"subject_id":"87136","group":"Group2"},{"task":"memory_phase","broad_category":"M","image_png":"M_Phyllite_13.png","image_id":269,"category_name":"Phyllite","category":17,"distinct_rating":2.8,"rt":null,"stimulus":"Stimuli_Rocks480/M_Phyllite_13.png","response":null,"trial_type":"image-keyboard-response","trial_index":290,"plugin_version":"2.1.0","time_elapsed":551675,"subject_id":"87136","group":"Group2"},{"rt":null,"stimulus":"<p style=\"font-size: 50px; margin: 0; text-align: center;\">+</p>","response":null,"trial_type":"html-keyboard-response","trial_index":291,"plugin_version":"2.1.0","time_elapsed":552677,"subject_id":"87136","group":"Group2"},{"task":"memory_phase","broad_category":"S","image_png":"S_Shale_07.png","image_id":471,"category_name":"Shale","category":30,"distinct_rating":2.73,"rt":null,"stimulus":"Stimuli_Rocks480/S_Shale_07.png","response":null,"trial_type":"image-keyboard-response","trial_index":292,"plugin_version":"2.1.0","time_elapsed":555181,"subject_id":"87136","group":"Group2"},{"rt":null,"stimulus":"<p style=\"font-size: 50px; margin: 0; text-align: center;\">+</p>","response":null,"trial_type":"html-keyboard-response","trial_index":293,"plugin_version":"2.1.0","time_elapsed":556183,"subject_id":"87136","group":"Group2"},{"task":"memory_phase","broad_category":"M","image_png":"M_Schist_11.png","image_id":299,"category_name":"Schist","category":19,"distinct_rating":6.22,"rt":null,"stimulus":"Stimuli_Rocks480/M_Schist_11.png","response":null,"trial_type":"image-keyboard-response","trial_index":294,"plugin_version":"2.1.0","time_elapsed":558687,"subject_id":"87136","group":"Group2"},{"rt":1662,"stimulus":"<p style=\"font-size: 35px;\">Press SPACE to continue study phase</p>","response":" ","trial_type":"html-keyboard-response","trial_index":295,"plugin_version":"2.1.0","time_elapsed":560349,"subject_id":"87136","group":"Group2"},{"rt":null,"stimulus":"<p style=\"font-size: 50px; margin: 0; text-align: center;\">+</p>","response":null,"trial_type":"html-keyboard-response","trial_index":296,"plugin_version":"2.1.0","time_elapsed":561352,"subject_id":"87136","group":"Group2"},{"task":"memory_phase","broad_category":"S","image_png":"S_Sandstone_10.png","image_id":458,"category_name":"Sandstone","category":29,"distinct_rating":2.05,"rt":null,"stimulus":"Stimuli_Rocks480/S_Sandstone_10.png","response":null,"trial_type":"image-keyboard-response","trial_index":297,"plugin_version":"2.1.0","time_elapsed":563856,"subject_id":"87136","group":"Group2"},{"rt":null,"stimulus":"<p style=\"font-size: 50px; margin: 0; text-align: center;\">+</p>","response":null,"trial_type":"html-keyboard-response","trial_index":298,"plugin_version":"2.1.0","time_elapsed":564858,"subject_id":"87136","group":"Group2"},{"task":"memory_phase","broad_category":"I","image_png":"I_Gabbro_06.png","image_id":54,"category_name":"Gabbro","category":4,"distinct_rating":3.26,"rt":null,"stimulus":"Stimuli_Rocks480/I_Gabbro_06.png","response":null,"trial_type":"image-keyboard-response","trial_index":299,"plugin_version":"2.1.0","time_elapsed":567361,"subject_id":"87136","group":"Group2"},{"rt":null,"stimulus":"<p style=\"font-size: 50px; margin: 0; text-align: center;\">+</p>","response":null,"trial_type":"html-keyboard-response","trial_index":300,"plugin_version":"2.1.0","time_elapsed":568364,"subject_id":"87136","group":"Group2"},{"task":"memory_phase","broad_category":"S","image_png":"S_Breccia_09.png","image_id":345,"category_name":"Breccia","category":22,"distinct_rating":6.7,"rt":null,"stimulus":"Stimuli_Rocks480/S_Breccia_09.png","response":null,"trial_type":"image-keyboard-response","trial_index":301,"plugin_version":"2.1.0","time_elapsed":570867,"subject_id":"87136","group":"Group2"},{"rt":null,"stimulus":"<p style=\"font-size: 50px; margin: 0; text-align: center;\">+</p>","response":null,"trial_type":"html-keyboard-response","trial_index":302,"plugin_version":"2.1.0","time_elapsed":571870,"subject_id":"87136","group":"Group2"},{"task":"memory_phase","broad_category":"I","image_png":"I_Granite_05.png","image_id":69,"category_name":"Granite","category":5,"distinct_rating":4.49,"rt":null,"stimulus":"Stimuli_Rocks480/I_Granite_05.png","response":null,"trial_type":"image-keyboard-response","trial_index":303,"plugin_version":"2.1.0","time_elapsed":574374,"subject_id":"87136","group":"Group2"},{"rt":null,"stimulus":"<p style=\"font-size: 50px; margin: 0; text-align: center;\">+</p>","response":null,"trial_type":"html-keyboard-response","trial_index":304,"plugin_version":"2.1.0","time_elapsed":575376,"subject_id":"87136","group":"Group2"},{"task":"memory_phase","broad_category":"I","image_png":"I_Diorite_11.png","image_id":43,"category_name":"Diorite","category":3,"distinct_rating":3.36,"rt":null,"stimulus":"Stimuli_Rocks480/I_Diorite_11.png","response":null,"trial_type":"image-keyboard-response","trial_index":305,"plugin_version":"2.1.0","time_elapsed":577879,"subject_id":"87136","group":"Group2"},{"rt":null,"stimulus":"<p style=\"font-size: 50px; margin: 0; text-align: center;\">+</p>","response":null,"trial_type":"html-keyboard-response","trial_index":306,"plugin_version":"2.1.0","time_elapsed":578881,"subject_id":"87136","group":"Group2"},{"task":"memory_phase","broad_category":"S","image_png":"S_Shale_06.png","image_id":470,"category_name":"Shale","category":30,"distinct_rating":4.11,"rt":null,"stimulus":"Stimuli_Rocks480/S_Shale_06.png","response":null,"trial_type":"image-keyboard-response","trial_index":307,"plugin_version":"2.1.0","time_elapsed":581385,"subject_id":"87136","group":"Group2"},{"rt":null,"stimulus":"<p style=\"font-size: 50px; margin: 0; text-align: center;\">+</p>","response":null,"trial_type":"html-keyboard-response","trial_index":308,"plugin_version":"2.1.0","time_elapsed":582387,"subject_id":"87136","group":"Group2"},{"task":"memory_phase","broad_category":"S","image_png":"S_Conglomerate_05.png","image_id":373,"category_name":"Conglomerate","category":24,"distinct_rating":7.32,"rt":null,"stimulus":"Stimuli_Rocks480/S_Conglomerate_05.png","response":null,"trial_type":"image-keyboard-response","trial_index":309,"plugin_version":"2.1.0","time_elapsed":584890,"subject_id":"87136","group":"Group2"},{"rt":null,"stimulus":"<p style=\"font-size: 50px; margin: 0; text-align: center;\">+</p>","response":null,"trial_type":"html-keyboard-response","trial_index":310,"plugin_version":"2.1.0","time_elapsed":585893,"subject_id":"87136","group":"Group2"},{"task":"memory_phase","broad_category":"M","image_png":"M_Gneiss_12.png","image_id":204,"category_name":"Gneiss","category":13,"distinct_rating":4.52,"rt":null,"stimulus":"Stimuli_Rocks480/M_Gneiss_12.png","response":null,"trial_type":"image-keyboard-response","trial_index":311,"plugin_version":"2.1.0","time_elapsed":588397,"subject_id":"87136","group":"Group2"},{"rt":null,"stimulus":"<p style=\"font-size: 50px; margin: 0; text-align: center;\">+</p>","response":null,"trial_type":"html-keyboard-response","trial_index":312,"plugin_version":"2.1.0","time_elapsed":589400,"subject_id":"87136","group":"Group2"},{"task":"memory_phase","broad_category":"M","image_png":"M_Amphibolite_06.png","image_id":166,"category_name":"Amphibolite","category":11,"distinct_rating":2.8,"rt":null,"stimulus":"Stimuli_Rocks480/M_Amphibolite_06.png","response":null,"trial_type":"image-keyboard-response","trial_index":313,"plugin_version":"2.1.0","time_elapsed":591903,"subject_id":"87136","group":"Group2"},{"rt":null,"stimulus":"<p style=\"font-size: 50px; margin: 0; text-align: center;\">+</p>","response":null,"trial_type":"html-keyboard-response","trial_index":314,"plugin_version":"2.1.0","time_elapsed":592906,"subject_id":"87136","group":"Group2"},{"task":"memory_phase","broad_category":"S","image_png":"S_Conglomerate_04.png","image_id":372,"category_name":"Conglomerate","category":24,"distinct_rating":5.91,"rt":null,"stimulus":"Stimuli_Rocks480/S_Conglomerate_04.png","response":null,"trial_type":"image-keyboard-response","trial_index":315,"plugin_version":"2.1.0","time_elapsed":595410,"subject_id":"87136","group":"Group2"},{"rt":null,"stimulus":"<p style=\"font-size: 50px; margin: 0; text-align: center;\">+</p>","response":null,"trial_type":"html-keyboard-response","trial_index":316,"plugin_version":"2.1.0","time_elapsed":596413,"subject_id":"87136","group":"Group2"},{"task":"memory_phase","broad_category":"M","image_png":"M_Hornfels_08.png","image_id":216,"category_name":"Hornfels","category":14,"distinct_rating":2.9,"rt":null,"stimulus":"Stimuli_Rocks480/M_Hornfels_08.png","response":null,"trial_type":"image-keyboard-response","trial_index":317,"plugin_version":"2.1.0","time_elapsed":598916,"subject_id":"87136","group":"Group2"},{"rt":null,"stimulus":"<p style=\"font-size: 50px; margin: 0; text-align: center;\">+</p>","response":null,"trial_type":"html-keyboard-response","trial_index":318,"plugin_version":"2.1.0","time_elapsed":599919,"subject_id":"87136","group":"Group2"},{"task":"memory_phase","broad_category":"M","image_png":"M_Migmatite_05.png","image_id":245,"category_name":"Migmatite","category":16,"distinct_rating":4.03,"rt":null,"stimulus":"Stimuli_Rocks480/M_Migmatite_05.png","response":null,"trial_type":"image-keyboard-response","trial_index":319,"plugin_version":"2.1.0","time_elapsed":602423,"subject_id":"87136","group":"Group2"},{"rt":null,"stimulus":"<p style=\"font-size: 50px; margin: 0; text-align: center;\">+</p>","response":null,"trial_type":"html-keyboard-response","trial_ind