trial_index subject_id group condition task item_type response correct_response cor_ans rt category image_id distinct_rating distinct_type good_subj
1 169 1 0 1 0 0 0 1 6663.0 13 202 3.09 0 0
2 169 1 0 1 0 0 0 1 2057.0 20 314 1.94 0 0
3 169 1 0 1 0 1 0 0 1210.0 18 279 1.97 0 0
4 169 1 0 1 1 0 1 0 1327.0 10 155 1.73 0 0
5 169 1 0 1 1 1 1 1 1168.0 3 35 3.14 0 0
6 169 1 0 1 0 0 0 1 938.0 24 382 6.86 1 0
7 169 1 0 1 0 1 0 0 2731.0 4 60 2.6 0 0
8 169 1 0 1 0 0 0 1 1345.0 7 107 7.11 1 0
9 169 1 0 1 0 0 0 1 1011.0 3 33 2.97 0 0
10 169 1 0 1 1 0 1 0 652.0 25 398 1.43 0 0
11 169 1 0 1 1 0 1 0 599.0 3 37 3.08 0 0
12 169 1 0 1 0 1 0 0 979.0 6 86 8.01 1 0
13 169 1 0 1 0 1 0 0 724.0 28 447 7.79 1 0
14 169 1 0 1 0 1 0 0 524.0 9 141 3.12 0 0
15 169 1 0 1 1 1 1 1 697.0 29 451 1.86 0 0
16 169 1 0 1 0 1 0 0 930.0 10 154 2.88 0 0
17 169 1 0 1 1 0 1 0 531.0 9 136 3.1 0 0
18 169 1 0 1 0 0 0 1 578.0 13 207 3.11 0 0
19 169 1 0 1 1 1 1 1 1774.0 20 319 2.13 0 0
20 169 1 0 1 1 1 1 1 942.0 17 266 2.6 0 0
21 169 1 0 1 1 1 1 1 970.0 10 160 2.19 0 0
22 169 1 0 1 1 1 1 1 738.0 30 472 2.55 0 0
23 169 1 0 1 0 1 0 0 942.0 29 452 1.8 0 0
24 169 1 0 1 1 0 1 0 637.0 24 373 7.32 1 0
25 169 1 0 1 1 0 1 0 648.0 29 464 1.93 0 0
26 169 1 0 1 1 1 1 1 731.0 7 112 7.03 1 0
27 169 1 0 1 0 1 0 0 702.0 17 269 2.8 0 0
28 169 1 0 1 1 0 1 0 904.0 4 59 1.99 0 0
29 169 1 0 1 0 0 0 1 302.0 4 50 2.73 0 0
30 169 1 0 1 0 0 0 1 1491.0 8 125 7.28 1 0
31 169 1 0 1 0 1 0 0 698.0 30 471 2.73 0 0
32 169 1 0 1 0 1 0 0 669.0 3 42 2.84 0 0
33 169 1 0 1 1 1 1 1 712.0 17 263 2.59 0 0
34 169 1 0 1 0 0 0 1 665.0 30 467 1.95 0 0
35 169 1 0 1 0 0 0 1 844.0 3 47 3.05 0 0
36 169 1 0 1 0 0 0 1 906.0 9 142 3.22 0 0
37 169 1 0 1 0 0 0 1 755.0 23 365 6.57 1 0
38 169 1 0 1 1 0 1 0 606.0 30 465 2.7 0 0
39 169 1 0 1 1 0 1 0 473.0 6 85 7.32 1 0
40 169 1 0 1 0 1 0 0 589.0 10 149 3.02 0 0
41 169 1 0 1 1 0 1 0 528.0 20 307 1.87 0 0
42 169 1 0 1 1 0 1 0 409.0 9 140 2.97 0 0
43 169 1 0 1 0 0 0 1 280.0 15 238 3.31 0 0
44 169 1 0 1 1 1 1 1 1203.0 25 397 1.77 0 0
45 169 1 0 1 1 1 1 1 718.0 18 280 2.15 0 0
46 169 1 0 1 1 1 1 1 630.0 9 139 1.74 0 0
47 169 1 0 1 1 0 1 0 786.0 30 476 2.48 0 0
48 169 1 0 1 0 1 0 0 640.0 25 400 1.71 0 0
49 169 1 0 1 1 0 1 0 446.0 4 64 2.52 0 0
50 169 1 0 1 1 0 1 0 417.0 15 228 3.15 0 0
51 169 1 0 1 0 0 0 1 494.0 25 391 1.73 0 0
52 169 1 0 1 1 0 1 0 1949.0 2 17 1.92 0 0
53 169 1 0 1 0 1 0 0 336.0 17 261 2.14 0 0
54 169 1 0 1 0 1 0 0 4110.0 29 456 1.5 0 0
55 169 1 0 1 1 1 1 1 441.0 15 240 2.57 0 0
56 169 1 0 1 1 1 1 1 457.0 18 285 2.27 0 0
57 169 1 0 1 1 1 1 1 374.0 29 463 2.0 0 0
58 169 1 0 1 1 1 1 1 625.0 15 230 3.4 0 0
59 169 1 0 1 1 1 1 1 488.0 10 158 2.59 0 0
60 169 1 0 1 0 1 0 0 561.0 30 466 2.9 0 0
61 169 1 0 1 0 0 0 1 543.0 7 99 7.24 1 0
62 169 1 0 1 1 0 1 0 432.0 17 259 2.5 0 0
63 169 1 0 1 1 0 1 0 415.0 28 433 7.18 1 0
64 169 1 0 1 0 0 0 1 259.0 1 9 2.49 0 0
65 169 1 0 1 0 1 0 0 715.0 18 284 1.92 0 0
66 169 1 0 1 1 0 1 0 305.0 1 8 1.95 0 0
67 169 1 0 1 1 1 1 1 453.0 13 197 2.97 0 0
68 169 1 0 1 1 1 1 1 540.0 27 420 7.61 1 0
69 169 1 0 1 0 1 0 0 542.0 2 24 2.31 0 0
70 169 1 0 1 1 0 1 0 627.0 1 10 3.15 0 0
71 169 1 0 1 0 0 0 1 460.0 20 318 2.58 0 0
72 169 1 0 1 1 1 1 1 552.0 7 106 7.66 1 0
73 169 1 0 1 1 0 1 0 487.0 25 396 1.85 0 0
74 169 1 0 1 0 1 0 0 290.0 1 4 3.18 0 0
75 169 1 0 1 0 0 0 1 609.0 4 62 2.95 0 0
76 169 1 0 1 0 0 0 1 442.0 2 29 2.68 0 0
77 169 1 0 1 1 0 1 0 547.0 2 18 1.84 0 0
78 169 1 0 1 1 0 1 0 453.0 13 205 3.26 0 0
79 169 1 0 1 0 1 0 0 617.0 15 226 3.2 0 0
80 169 1 0 1 1 1 1 1 361.0 3 36 2.98 0 0
81 169 1 0 1 1 1 1 1 391.0 2 25 1.89 0 0
82 169 1 0 1 0 0 0 1 546.0 29 459 1.82 0 0
83 169 1 0 1 0 1 0 0 300.0 17 258 2.89 0 0
84 169 1 0 1 0 0 0 1 423.0 9 129 3.25 0 0
85 169 1 0 1 1 1 1 1 276.0 13 198 2.65 0 0
86 169 1 0 1 0 1 0 0 606.0 10 152 1.38 0 0
87 169 1 0 1 0 1 0 0 409.0 20 308 2.2 0 0
88 169 1 0 1 1 1 1 1 430.0 4 56 3.02 0 0
89 169 1 0 1 1 1 1 1 716.0 20 315 2.75 0 0
90 169 1 0 1 0 0 0 1 663.0 18 287 2.19 0 0
91 169 1 0 1 1 0 1 0 608.0 23 362 7.17 1 0
92 169 1 0 1 0 0 0 1 555.0 1 3 3.17 0 0
93 169 1 0 1 0 1 0 0 485.0 2 26 2.76 0 0
94 169 1 0 1 0 1 0 0 284.0 25 385 1.43 0 0
95 169 1 0 1 0 0 0 1 603.0 28 445 7.58 1 0
96 169 1 0 1 0 0 0 1 458.0 13 206 3.41 0 0
97 169 1 0 1 1 0 1 0 545.0 22 347 6.7 1 0
98 169 1 0 1 0 1 0 0 459.0 15 227 2.67 0 0
99 169 1 0 1 1 1 1 1 438.0 1 6 3.17 0 0
100 169 1 0 1 1 1 1 1 557.0 18 277 2.23 0 0
1 155 2 1 1 1 1 1 1 1776.0 13 207 3.11 0 1
2 155 2 1 1 1 1 1 1 767.0 28 445 7.58 1 1
3 155 2 1 1 1 1 1 1 779.0 7 99 7.24 1 1
4 155 2 1 1 1 1 1 1 805.0 13 202 3.09 0 1
5 155 2 1 1 0 0 0 1 924.0 10 160 2.19 0 1
6 155 2 1 1 0 0 0 1 1646.0 9 140 2.97 0 1
7 155 2 1 1 1 0 1 0 672.0 2 29 2.68 0 1
8 155 2 1 1 0 1 0 0 1039.0 4 56 3.02 0 1
9 155 2 1 1 0 0 0 1 527.0 3 36 2.98 0 1
10 155 2 1 1 0 0 0 1 2716.0 4 64 2.52 0 1
11 155 2 1 1 1 0 1 0 1346.0 2 26 2.76 0 1
12 155 2 1 1 1 0 1 0 940.0 18 284 1.92 0 1
13 155 2 1 1 0 1 0 0 516.0 17 263 2.59 0 1
14 155 2 1 1 0 1 0 0 437.0 30 465 2.7 0 1
15 155 2 1 1 0 0 0 1 216.0 18 285 2.27 0 1
16 155 2 1 1 1 1 1 1 1069.0 4 50 2.73 0 1
17 155 2 1 1 1 0 1 0 791.0 30 471 2.73 0 1
18 155 2 1 1 0 1 0 0 1909.0 20 319 2.13 0 1
19 155 2 1 1 0 0 0 1 270.0 29 463 2.0 0 1
20 155 2 1 1 1 0 1 0 1405.0 20 308 2.2 0 1
21 155 2 1 1 1 0 1 0 762.0 3 42 2.84 0 1
22 155 2 1 1 0 1 0 0 472.0 2 17 1.92 0 1
23 155 2 1 1 0 1 0 0 370.0 29 464 1.93 0 1
24 155 2 1 1 0 0 0 1 258.0 10 155 1.73 0 1
25 155 2 1 1 1 0 1 0 845.0 1 3 3.17 0 1
26 155 2 1 1 1 0 1 0 628.0 17 269 2.8 0 1
27 155 2 1 1 1 1 1 1 1204.0 20 318 2.58 0 1
28 155 2 1 1 1 1 1 1 772.0 23 365 6.57 1 1
29 155 2 1 1 0 1 0 0 631.0 2 25 1.89 0 1
30 155 2 1 1 0 0 0 1 636.0 10 158 2.59 0 1
31 155 2 1 1 0 0 0 1 465.0 15 230 3.4 0 1
32 155 2 1 1 0 0 0 1 460.0 18 280 2.15 0 1
33 155 2 1 1 1 0 1 0 1018.0 30 466 2.9 0 1
34 155 2 1 1 1 0 1 0 1051.0 4 62 2.95 0 1
35 155 2 1 1 1 1 1 1 645.0 13 206 3.41 0 1
36 155 2 1 1 0 0 0 1 908.0 3 35 3.14 0 1
37 155 2 1 1 1 0 1 0 1725.0 25 400 1.71 0 1
38 155 2 1 1 1 0 1 0 987.0 10 149 3.02 0 1
39 155 2 1 1 0 1 0 0 497.0 25 397 1.77 0 1
40 155 2 1 1 0 0 0 1 533.0 24 373 7.32 1 1
41 155 2 1 1 1 0 1 0 448.0 17 261 2.14 0 1
42 155 2 1 1 0 1 0 0 452.0 20 307 1.87 0 1
43 155 2 1 1 0 1 0 0 435.0 17 259 2.5 0 1
44 155 2 1 1 1 0 1 0 786.0 28 447 7.79 1 1
45 155 2 1 1 1 1 1 1 813.0 9 142 3.22 0 1
46 155 2 1 1 0 0 0 1 676.0 17 266 2.6 0 1
47 155 2 1 1 0 0 0 1 523.0 22 347 6.7 1 1
48 155 2 1 1 1 1 1 1 717.0 2 24 2.31 0 1
49 155 2 1 1 0 0 0 1 578.0 2 18 1.84 0 1
50 155 2 1 1 0 0 0 1 541.0 13 205 3.26 0 1
51 155 2 1 1 1 1 1 1 649.0 18 287 2.19 0 1
52 155 2 1 1 1 1 1 1 673.0 3 47 3.05 0 1
53 155 2 1 1 1 1 1 1 612.0 15 226 3.2 0 1
54 155 2 1 1 1 1 1 1 609.0 24 382 6.86 1 1
55 155 2 1 1 1 1 1 1 823.0 18 279 1.97 0 1
56 155 2 1 1 0 0 0 1 605.0 1 8 1.95 0 1
57 155 2 1 1 1 1 1 1 664.0 1 4 3.18 0 1
58 155 2 1 1 0 0 0 1 408.0 1 10 3.15 0 1
59 155 2 1 1 0 1 0 0 382.0 23 362 7.17 1 1
60 155 2 1 1 1 1 1 1 655.0 7 107 7.11 1 1
61 155 2 1 1 0 0 0 1 567.0 3 37 3.08 0 1
62 155 2 1 1 0 0 0 1 373.0 30 476 2.48 0 1
63 155 2 1 1 1 1 1 1 728.0 4 60 2.6 0 1
64 155 2 1 1 1 1 1 1 988.0 10 154 2.88 0 1
65 155 2 1 1 0 0 0 1 719.0 4 59 1.99 0 1
66 155 2 1 1 0 0 0 1 427.0 13 198 2.65 0 1
67 155 2 1 1 0 0 0 1 381.0 25 398 1.43 0 1
68 155 2 1 1 0 0 0 1 1874.0 28 433 7.18 1 1
69 155 2 1 1 1 1 1 1 697.0 10 152 1.38 0 1
70 155 2 1 1 1 0 1 0 733.0 8 125 7.28 1 1
71 155 2 1 1 1 1 1 1 720.0 25 385 1.43 0 1
72 155 2 1 1 1 0 1 0 654.0 6 86 8.01 1 1
73 155 2 1 1 0 1 0 0 296.0 30 472 2.55 0 1
74 155 2 1 1 1 1 1 1 588.0 25 391 1.73 0 1
75 155 2 1 1 0 0 0 1 491.0 29 451 1.86 0 1
76 155 2 1 1 0 0 0 1 500.0 18 277 2.23 0 1
77 155 2 1 1 1 1 1 1 686.0 15 238 3.31 0 1
78 155 2 1 1 0 0 0 1 587.0 9 139 1.74 0 1
79 155 2 1 1 0 0 0 1 366.0 27 420 7.61 1 1
80 155 2 1 1 1 0 1 0 478.0 29 459 1.82 0 1
81 155 2 1 1 1 1 1 1 539.0 9 141 3.12 0 1
82 155 2 1 1 0 0 0 1 565.0 7 106 7.66 1 1
83 155 2 1 1 1 1 1 1 610.0 29 456 1.5 0 1
84 155 2 1 1 1 1 1 1 588.0 15 227 2.67 0 1
85 155 2 1 1 0 0 0 1 584.0 15 240 2.57 0 1
86 155 2 1 1 0 0 0 1 494.0 6 85 7.32 1 1
87 155 2 1 1 0 0 0 1 697.0 20 315 2.75 0 1
88 155 2 1 1 1 1 1 1 637.0 20 314 1.94 0 1
89 155 2 1 1 1 1 1 1 700.0 17 258 2.89 0 1
90 155 2 1 1 0 0 0 1 431.0 7 112 7.03 1 1
91 155 2 1 1 1 1 1 1 591.0 1 9 2.49 0 1
92 155 2 1 1 0 0 0 1 439.0 15 228 3.15 0 1
93 155 2 1 1 1 1 1 1 801.0 30 467 1.95 0 1
94 155 2 1 1 0 0 0 1 803.0 9 136 3.1 0 1
95 155 2 1 1 0 1 0 0 361.0 1 6 3.17 0 1
96 155 2 1 1 1 1 1 1 534.0 29 452 1.8 0 1
97 155 2 1 1 0 0 0 1 396.0 13 197 2.97 0 1
98 155 2 1 1 1 1 1 1 569.0 3 33 2.97 0 1
99 155 2 1 1 1 1 1 1 796.0 9 129 3.25 0 1
100 155 2 1 1 0 0 0 1 598.0 25 396 1.85 0 1
1 100 1 0 1 1 1 1 1 2418.0 9 136 3.1 0 1
2 100 1 0 1 1 1 1 1 1456.0 23 362 7.17 1 1
3 100 1 0 1 0 1 0 0 5503.0 1 3 3.17 0 1
4 100 1 0 1 0 1 0 0 2018.0 18 287 2.19 0 1
5 100 1 0 1 1 1 1 1 1498.0 10 158 2.59 0 1
6 100 1 0 1 1 1 1 1 1198.0 2 18 1.84 0 1
7 100 1 0 1 0 1 0 0 1270.0 15 226 3.2 0 1
8 100 1 0 1 1 1 1 1 2950.0 13 197 2.97 0 1
9 100 1 0 1 1 1 1 1 1841.0 4 56 3.02 0 1
10 100 1 0 1 0 0 0 1 3802.0 30 467 1.95 0 1
11 100 1 0 1 1 1 1 1 2410.0 25 396 1.85 0 1
12 100 1 0 1 1 0 1 0 1623.0 4 64 2.52 0 1
13 100 1 0 1 1 0 1 0 4101.0 9 139 1.74 0 1
14 100 1 0 1 1 0 1 0 1194.0 9 140 2.97 0 1
15 100 1 0 1 1 1 1 1 1123.0 7 106 7.66 1 1
16 100 1 0 1 0 1 0 0 1531.0 23 365 6.57 1 1
17 100 1 0 1 0 0 0 1 3343.0 3 42 2.84 0 1
18 100 1 0 1 1 1 1 1 1213.0 3 35 3.14 0 1
19 100 1 0 1 0 1 0 0 1292.0 3 33 2.97 0 1
20 100 1 0 1 1 0 1 0 1433.0 13 205 3.26 0 1
21 100 1 0 1 1 1 1 1 2339.0 27 420 7.61 1 1
22 100 1 0 1 0 1 0 0 1909.0 25 400 1.71 0 1
23 100 1 0 1 1 1 1 1 852.0 17 259 2.5 0 1
24 100 1 0 1 1 1 1 1 885.0 6 85 7.32 1 1
25 100 1 0 1 0 0 0 1 1676.0 29 459 1.82 0 1
26 100 1 0 1 0 1 0 0 2571.0 1 4 3.18 0 1
27 100 1 0 1 1 1 1 1 1184.0 22 347 6.7 1 1
28 100 1 0 1 0 0 0 1 2737.0 3 47 3.05 0 1
29 100 1 0 1 0 0 0 1 1696.0 13 202 3.09 0 1
30 100 1 0 1 1 1 1 1 2476.0 4 59 1.99 0 1
31 100 1 0 1 1 0 1 0 1457.0 18 280 2.15 0 1
32 100 1 0 1 0 0 0 1 931.0 28 445 7.58 1 1
33 100 1 0 1 0 0 0 1 1366.0 13 206 3.41 0 1
34 100 1 0 1 1 1 1 1 1323.0 30 465 2.7 0 1
35 100 1 0 1 1 1 1 1 757.0 15 228 3.15 0 1
36 100 1 0 1 1 1 1 1 870.0 3 37 3.08 0 1
37 100 1 0 1 0 0 0 1 1351.0 17 269 2.8 0 1
38 100 1 0 1 1 1 1 1 1000.0 20 315 2.75 0 1
39 100 1 0 1 0 0 0 1 1333.0 17 261 2.14 0 1
40 100 1 0 1 0 1 0 0 954.0 15 238 3.31 0 1
41 100 1 0 1 1 1 1 1 1007.0 3 36 2.98 0 1
42 100 1 0 1 0 0 0 1 1039.0 9 141 3.12 0 1
43 100 1 0 1 1 0 1 0 792.0 29 451 1.86 0 1
44 100 1 0 1 0 0 0 1 867.0 10 152 1.38 0 1
45 100 1 0 1 1 0 1 0 2127.0 17 266 2.6 0 1
46 100 1 0 1 0 0 0 1 2408.0 28 447 7.79 1 1
47 100 1 0 1 0 1 0 0 1614.0 4 60 2.6 0 1
48 100 1 0 1 1 1 1 1 676.0 2 25 1.89 0 1
49 100 1 0 1 0 0 0 1 3346.0 29 452 1.8 0 1
50 100 1 0 1 0 0 0 1 1470.0 7 107 7.11 1 1
51 100 1 0 1 0 0 0 1 1048.0 7 99 7.24 1 1
52 100 1 0 1 0 0 0 1 1909.0 4 50 2.73 0 1
53 100 1 0 1 0 1 0 0 2277.0 30 471 2.73 0 1
54 100 1 0 1 0 0 0 1 1310.0 17 258 2.89 0 1
55 100 1 0 1 1 1 1 1 1660.0 2 17 1.92 0 1
56 100 1 0 1 0 1 0 0 1378.0 25 385 1.43 0 1
57 100 1 0 1 0 1 0 0 1989.0 1 9 2.49 0 1
58 100 1 0 1 1 1 1 1 1131.0 24 373 7.32 1 1
59 100 1 0 1 0 0 0 1 1291.0 2 26 2.76 0 1
60 100 1 0 1 1 0 1 0 879.0 20 307 1.87 0 1
61 100 1 0 1 1 0 1 0 1341.0 30 472 2.55 0 1
62 100 1 0 1 1 0 1 0 2422.0 7 112 7.03 1 1
63 100 1 0 1 0 1 0 0 1612.0 20 318 2.58 0 1
64 100 1 0 1 0 0 0 1 3077.0 4 62 2.95 0 1
65 100 1 0 1 1 0 1 0 1815.0 18 285 2.27 0 1
66 100 1 0 1 0 0 0 1 2044.0 9 142 3.22 0 1
67 100 1 0 1 1 1 1 1 2496.0 1 10 3.15 0 1
68 100 1 0 1 1 1 1 1 650.0 28 433 7.18 1 1
69 100 1 0 1 0 1 0 0 1332.0 20 308 2.2 0 1
70 100 1 0 1 1 0 1 0 1594.0 20 319 2.13 0 1
71 100 1 0 1 0 0 0 1 2447.0 24 382 6.86 1 1
72 100 1 0 1 1 1 1 1 2047.0 10 160 2.19 0 1
73 100 1 0 1 0 0 0 1 1155.0 2 29 2.68 0 1
74 100 1 0 1 0 0 0 1 908.0 10 149 3.02 0 1
75 100 1 0 1 1 1 1 1 3566.0 30 476 2.48 0 1
76 100 1 0 1 1 1 1 1 838.0 29 464 1.93 0 1
77 100 1 0 1 1 0 1 0 2086.0 15 240 2.57 0 1
78 100 1 0 1 0 0 0 1 687.0 8 125 7.28 1 1
79 100 1 0 1 0 1 0 0 2196.0 18 279 1.97 0 1
80 100 1 0 1 1 1 1 1 827.0 1 6 3.17 0 1
81 100 1 0 1 0 0 0 1 1130.0 18 284 1.92 0 1
82 100 1 0 1 1 1 1 1 1539.0 15 230 3.4 0 1
83 100 1 0 1 0 1 0 0 1293.0 2 24 2.31 0 1
84 100 1 0 1 0 0 0 1 1169.0 13 207 3.11 0 1
85 100 1 0 1 0 1 0 0 1180.0 10 154 2.88 0 1
86 100 1 0 1 0 0 0 1 1476.0 9 129 3.25 0 1
87 100 1 0 1 0 1 0 0 1990.0 20 314 1.94 0 1
88 100 1 0 1 0 0 0 1 2121.0 30 466 2.9 0 1
89 100 1 0 1 0 0 0 1 671.0 6 86 8.01 1 1
90 100 1 0 1 1 0 1 0 1660.0 10 155 1.73 0 1
91 100 1 0 1 1 0 1 0 813.0 25 398 1.43 0 1
92 100 1 0 1 1 0 1 0 2578.0 1 8 1.95 0 1
93 100 1 0 1 0 1 0 0 1408.0 25 391 1.73 0 1
94 100 1 0 1 0 0 0 1 1330.0 29 456 1.5 0 1
95 100 1 0 1 1 1 1 1 1184.0 13 198 2.65 0 1
96 100 1 0 1 1 1 1 1 2260.0 18 277 2.23 0 1
97 100 1 0 1 1 1 1 1 1056.0 29 463 2.0 0 1
98 100 1 0 1 0 1 0 0 1807.0 15 227 2.67 0 1
99 100 1 0 1 1 0 1 0 1747.0 17 263 2.59 0 1
100 100 1 0 1 1 1 1 1 1802.0 25 397 1.77 0 1
1 30 1 0 1 1 0 1 0 2240.0 1 8 1.95 0 1
2 30 1 0 1 1 0 1 0 1223.0 24 373 7.32 1 1
3 30 1 0 1 0 1 0 0 2055.0 3 47 3.05 0 1
4 30 1 0 1 1 0 1 0 1420.0 15 240 2.57 0 1
5 30 1 0 1 1 0 1 0 1218.0 20 315 2.75 0 1
6 30 1 0 1 0 0 0 1 1503.0 8 125 7.28 1 1
7 30 1 0 1 0 1 0 0 1325.0 20 308 2.2 0 1
8 30 1 0 1 0 0 0 1 1145.0 18 287 2.19 0 1
9 30 1 0 1 0 0 0 1 1011.0 10 154 2.88 0 1
10 30 1 0 1 0 0 0 1 859.0 1 9 2.49 0 1
11 30 1 0 1 1 0 1 0 885.0 2 17 1.92 0 1
12 30 1 0 1 0 1 0 0 974.0 28 447 7.79 1 1
13 30 1 0 1 0 0 0 1 4456.0 25 385 1.43 0 1
14 30 1 0 1 0 0 0 1 1091.0 9 141 3.12 0 1
15 30 1 0 1 0 1 0 0 1217.0 20 314 1.94 0 1
16 30 1 0 1 1 1 1 1 861.0 3 36 2.98 0 1
17 30 1 0 1 0 1 0 0 952.0 29 452 1.8 0 1
18 30 1 0 1 1 1 1 1 893.0 13 205 3.26 0 1
19 30 1 0 1 0 1 0 0 1046.0 30 467 1.95 0 1
20 30 1 0 1 0 1 0 0 743.0 13 207 3.11 0 1
21 30 1 0 1 0 0 0 1 711.0 23 365 6.57 1 1
22 30 1 0 1 0 0 0 1 1112.0 29 456 1.5 0 1
23 30 1 0 1 0 1 0 0 957.0 17 269 2.8 0 1
24 30 1 0 1 1 1 1 1 781.0 1 6 3.17 0 1
25 30 1 0 1 1 0 1 0 1637.0 9 139 1.74 0 1
26 30 1 0 1 1 0 1 0 1246.0 10 160 2.19 0 1
27 30 1 0 1 1 1 1 1 1039.0 30 476 2.48 0 1
28 30 1 0 1 1 1 1 1 860.0 3 35 3.14 0 1
29 30 1 0 1 1 0 1 0 1149.0 17 259 2.5 0 1
30 30 1 0 1 1 1 1 1 742.0 25 396 1.85 0 1
31 30 1 0 1 0 0 0 1 1673.0 29 459 1.82 0 1
32 30 1 0 1 1 0 1 0 915.0 29 451 1.86 0 1
33 30 1 0 1 0 0 0 1 990.0 10 152 1.38 0 1
34 30 1 0 1 0 0 0 1 1056.0 3 42 2.84 0 1
35 30 1 0 1 0 1 0 0 1044.0 9 129 3.25 0 1
36 30 1 0 1 1 1 1 1 1099.0 7 112 7.03 1 1
37 30 1 0 1 0 0 0 1 783.0 2 24 2.31 0 1
38 30 1 0 1 1 0 1 0 750.0 1 10 3.15 0 1
39 30 1 0 1 0 0 0 1 1308.0 30 471 2.73 0 1
40 30 1 0 1 1 1 1 1 1722.0 15 228 3.15 0 1
41 30 1 0 1 0 0 0 1 901.0 7 107 7.11 1 1
42 30 1 0 1 0 0 0 1 1014.0 1 4 3.18 0 1
43 30 1 0 1 1 1 1 1 820.0 13 198 2.65 0 1
44 30 1 0 1 1 1 1 1 707.0 9 136 3.1 0 1
45 30 1 0 1 0 1 0 0 929.0 13 206 3.41 0 1
46 30 1 0 1 0 1 0 0 892.0 9 142 3.22 0 1
47 30 1 0 1 1 1 1 1 736.0 20 307 1.87 0 1
48 30 1 0 1 1 0 1 0 648.0 29 464 1.93 0 1
49 30 1 0 1 0 0 0 1 977.0 28 445 7.58 1 1
50 30 1 0 1 0 0 0 1 1261.0 15 227 2.67 0 1
51 30 1 0 1 0 0 0 1 806.0 15 238 3.31 0 1
52 30 1 0 1 0 1 0 0 984.0 18 284 1.92 0 1
53 30 1 0 1 1 0 1 0 674.0 4 64 2.52 0 1
54 30 1 0 1 1 1 1 1 1046.0 18 277 2.23 0 1
55 30 1 0 1 1 0 1 0 1433.0 17 263 2.59 0 1
56 30 1 0 1 1 1 1 1 809.0 25 398 1.43 0 1
57 30 1 0 1 0 1 0 0 837.0 20 318 2.58 0 1
58 30 1 0 1 1 1 1 1 556.0 3 37 3.08 0 1
59 30 1 0 1 1 1 1 1 1026.0 27 420 7.61 1 1
60 30 1 0 1 1 0 1 0 1165.0 4 56 3.02 0 1
61 30 1 0 1 0 0 0 1 742.0 24 382 6.86 1 1
62 30 1 0 1 0 0 0 1 1834.0 2 26 2.76 0 1
63 30 1 0 1 0 0 0 1 740.0 6 86 8.01 1 1
64 30 1 0 1 1 1 1 1 1196.0 30 472 2.55 0 1
65 30 1 0 1 1 0 1 0 973.0 18 285 2.27 0 1
66 30 1 0 1 1 1 1 1 866.0 2 18 1.84 0 1
67 30 1 0 1 0 0 0 1 951.0 18 279 1.97 0 1
68 30 1 0 1 0 0 0 1 995.0 10 149 3.02 0 1
69 30 1 0 1 1 1 1 1 1004.0 29 463 2.0 0 1
70 30 1 0 1 0 0 0 1 1012.0 4 50 2.73 0 1
71 30 1 0 1 0 1 0 0 852.0 4 60 2.6 0 1
72 30 1 0 1 1 0 1 0 810.0 7 106 7.66 1 1
73 30 1 0 1 0 0 0 1 1030.0 7 99 7.24 1 1
74 30 1 0 1 1 1 1 1 2191.0 13 197 2.97 0 1
75 30 1 0 1 1 1 1 1 1043.0 23 362 7.17 1 1
76 30 1 0 1 1 0 1 0 797.0 9 140 2.97 0 1
77 30 1 0 1 0 1 0 0 931.0 4 62 2.95 0 1
78 30 1 0 1 1 1 1 1 824.0 30 465 2.7 0 1
79 30 1 0 1 1 1 1 1 709.0 28 433 7.18 1 1
80 30 1 0 1 1 1 1 1 1100.0 25 397 1.77 0 1
81 30 1 0 1 0 0 0 1 965.0 17 258 2.89 0 1
82 30 1 0 1 0 1 0 0 1155.0 17 261 2.14 0 1
83 30 1 0 1 0 0 0 1 672.0 2 29 2.68 0 1
84 30 1 0 1 0 1 0 0 867.0 13 202 3.09 0 1
85 30 1 0 1 1 0 1 0 594.0 18 280 2.15 0 1
86 30 1 0 1 1 0 1 0 901.0 2 25 1.89 0 1
87 30 1 0 1 1 1 1 1 766.0 6 85 7.32 1 1
88 30 1 0 1 1 1 1 1 592.0 10 155 1.73 0 1
89 30 1 0 1 1 1 1 1 1140.0 22 347 6.7 1 1
90 30 1 0 1 1 1 1 1 2021.0 20 319 2.13 0 1
91 30 1 0 1 1 0 1 0 983.0 4 59 1.99 0 1
92 30 1 0 1 0 1 0 0 765.0 15 226 3.2 0 1
93 30 1 0 1 0 1 0 0 662.0 3 33 2.97 0 1
94 30 1 0 1 0 0 0 1 653.0 1 3 3.17 0 1
95 30 1 0 1 0 0 0 1 1381.0 25 400 1.71 0 1
96 30 1 0 1 0 0 0 1 1089.0 30 466 2.9 0 1
97 30 1 0 1 1 1 1 1 825.0 15 230 3.4 0 1
98 30 1 0 1 1 1 1 1 934.0 17 266 2.6 0 1
99 30 1 0 1 0 1 0 0 1431.0 25 391 1.73 0 1
100 30 1 0 1 1 0 1 0 1053.0 10 158 2.59 0 1
1 291 1 0 1 0 1 0 0 1823.0 13 206 3.41 0 1
2 291 1 0 1 0 1 0 0 1363.0 9 142 3.22 0 1
3 291 1 0 1 1 1 1 1 1058.0 25 398 1.43 0 1
4 291 1 0 1 0 0 0 1 1593.0 1 4 3.18 0 1
5 291 1 0 1 0 0 0 1 1353.0 30 471 2.73 0 1
6 291 1 0 1 1 1 1 1 809.0 29 463 2.0 0 1
7 291 1 0 1 0 1 0 0 1036.0 1 9 2.49 0 1
8 291 1 0 1 1 0 1 0 906.0 17 259 2.5 0 1
9 291 1 0 1 1 1 1 1 881.0 27 420 7.61 1 1
10 291 1 0 1 0 1 0 0 1279.0 7 107 7.11 1 1
11 291 1 0 1 1 1 1 1 895.0 2 17 1.92 0 1
12 291 1 0 1 0 0 0 1 972.0 4 62 2.95 0 1
13 291 1 0 1 1 1 1 1 1115.0 30 476 2.48 0 1
14 291 1 0 1 0 0 0 1 5344.0 25 385 1.43 0 1
15 291 1 0 1 1 1 1 1 794.0 3 36 2.98 0 1
16 291 1 0 1 0 1 0 0 1181.0 4 60 2.6 0 1
17 291 1 0 1 0 0 0 1 1543.0 10 152 1.38 0 1
18 291 1 0 1 1 1 1 1 1163.0 10 158 2.59 0 1
19 291 1 0 1 1 1 1 1 999.0 2 18 1.84 0 1
20 291 1 0 1 1 0 1 0 2464.0 10 155 1.73 0 1
21 291 1 0 1 0 1 0 0 881.0 20 308 2.2 0 1
22 291 1 0 1 1 1 1 1 898.0 17 263 2.59 0 1
23 291 1 0 1 1 1 1 1 914.0 1 8 1.95 0 1
24 291 1 0 1 0 0 0 1 951.0 17 258 2.89 0 1
25 291 1 0 1 0 0 0 1 3308.0 20 318 2.58 0 1
26 291 1 0 1 1 1 1 1 1134.0 15 240 2.57 0 1
27 291 1 0 1 1 1 1 1 974.0 23 362 7.17 1 1
28 291 1 0 1 1 0 1 0 1121.0 18 285 2.27 0 1
29 291 1 0 1 1 1 1 1 670.0 4 56 3.02 0 1
30 291 1 0 1 1 1 1 1 1078.0 25 397 1.77 0 1
31 291 1 0 1 0 0 0 1 915.0 18 284 1.92 0 1
32 291 1 0 1 1 1 1 1 846.0 7 112 7.03 1 1
33 291 1 0 1 1 1 1 1 828.0 15 228 3.15 0 1
34 291 1 0 1 1 1 1 1 707.0 29 464 1.93 0 1
35 291 1 0 1 0 0 0 1 828.0 29 459 1.82 0 1
36 291 1 0 1 1 1 1 1 754.0 3 35 3.14 0 1
37 291 1 0 1 0 0 0 1 908.0 7 99 7.24 1 1
38 291 1 0 1 1 1 1 1 800.0 20 307 1.87 0 1
39 291 1 0 1 0 1 0 0 772.0 15 238 3.31 0 1
40 291 1 0 1 1 1 1 1 799.0 24 373 7.32 1 1
41 291 1 0 1 0 0 0 1 835.0 3 42 2.84 0 1
42 291 1 0 1 1 1 1 1 647.0 18 280 2.15 0 1
43 291 1 0 1 1 1 1 1 906.0 9 136 3.1 0 1
44 291 1 0 1 0 0 0 1 1809.0 13 202 3.09 0 1
45 291 1 0 1 0 0 0 1 1124.0 18 279 1.97 0 1
46 291 1 0 1 1 0 1 0 852.0 22 347 6.7 1 1
47 291 1 0 1 1 1 1 1 1369.0 9 139 1.74 0 1
48 291 1 0 1 1 1 1 1 821.0 30 472 2.55 0 1
49 291 1 0 1 0 0 0 1 710.0 28 447 7.79 1 1
50 291 1 0 1 0 1 0 0 910.0 17 269 2.8 0 1
51 291 1 0 1 1 1 1 1 1241.0 20 319 2.13 0 1
52 291 1 0 1 1 1 1 1 2477.0 13 197 2.97 0 1
53 291 1 0 1 0 0 0 1 1214.0 17 261 2.14 0 1
54 291 1 0 1 0 0 0 1 949.0 2 26 2.76 0 1
55 291 1 0 1 1 0 1 0 907.0 20 315 2.75 0 1
56 291 1 0 1 1 0 1 0 1844.0 10 160 2.19 0 1
57 291 1 0 1 0 0 0 1 762.0 23 365 6.57 1 1
58 291 1 0 1 1 1 1 1 949.0 25 396 1.85 0 1
59 291 1 0 1 0 0 0 1 854.0 15 227 2.67 0 1
60 291 1 0 1 1 1 1 1 910.0 13 198 2.65 0 1
61 291 1 0 1 0 1 0 0 808.0 1 3 3.17 0 1
62 291 1 0 1 0 0 0 1 680.0 2 24 2.31 0 1
63 291 1 0 1 1 0 1 0 819.0 1 10 3.15 0 1
64 291 1 0 1 0 1 0 0 729.0 4 50 2.73 0 1
65 291 1 0 1 1 0 1 0 1071.0 6 85 7.32 1 1
66 291 1 0 1 0 0 0 1 1191.0 29 456 1.5 0 1
67 291 1 0 1 1 0 1 0 1997.0 4 64 2.52 0 1
68 291 1 0 1 0 0 0 1 1638.0 2 29 2.68 0 1
69 291 1 0 1 1 1 1 1 890.0 30 465 2.7 0 1
70 291 1 0 1 0 1 0 0 1251.0 15 226 3.2 0 1
71 291 1 0 1 1 1 1 1 850.0 13 205 3.26 0 1
72 291 1 0 1 0 0 0 1 661.0 9 141 3.12 0 1
73 291 1 0 1 0 0 0 1 694.0 6 86 8.01 1 1
74 291 1 0 1 0 1 0 0 813.0 29 452 1.8 0 1
75 291 1 0 1 0 0 0 1 829.0 8 125 7.28 1 1
76 291 1 0 1 0 0 0 1 902.0 10 149 3.02 0 1
77 291 1 0 1 1 1 1 1 2413.0 7 106 7.66 1 1
78 291 1 0 1 0 1 0 0 768.0 3 47 3.05 0 1
79 291 1 0 1 1 1 1 1 873.0 1 6 3.17 0 1
80 291 1 0 1 0 0 0 1 822.0 25 391 1.73 0 1
81 291 1 0 1 0 0 0 1 708.0 13 207 3.11 0 1
82 291 1 0 1 1 0 1 0 679.0 28 433 7.18 1 1
83 291 1 0 1 0 1 0 0 833.0 3 33 2.97 0 1
84 291 1 0 1 0 0 0 1 772.0 28 445 7.58 1 1
85 291 1 0 1 0 0 0 1 947.0 20 314 1.94 0 1
86 291 1 0 1 0 0 0 1 914.0 25 400 1.71 0 1
87 291 1 0 1 1 1 1 1 828.0 3 37 3.08 0 1
88 291 1 0 1 1 1 1 1 2032.0 15 230 3.4 0 1
89 291 1 0 1 1 1 1 1 1921.0 2 25 1.89 0 1
90 291 1 0 1 0 0 0 1 785.0 30 466 2.9 0 1
91 291 1 0 1 0 0 0 1 844.0 10 154 2.88 0 1
92 291 1 0 1 1 0 1 0 795.0 9 140 2.97 0 1
93 291 1 0 1 0 0 0 1 722.0 24 382 6.86 1 1
94 291 1 0 1 0 0 0 1 2162.0 18 287 2.19 0 1
95 291 1 0 1 1 0 1 0 1022.0 4 59 1.99 0 1
96 291 1 0 1 0 1 0 0 992.0 9 129 3.25 0 1
97 291 1 0 1 1 1 1 1 994.0 18 277 2.23 0 1
98 291 1 0 1 1 0 1 0 706.0 17 266 2.6 0 1
99 291 1 0 1 1 0 1 0 528.0 29 451 1.86 0 1
100 291 1 0 1 0 0 0 1 758.0 30 467 1.95 0 1
1 229 2 1 1 0 1 0 0 2195.0 13 205 3.26 0 1
2 229 2 1 1 1 1 1 1 1627.0 30 471 2.73 0 1
3 229 2 1 1 1 1 1 1 1019.0 25 391 1.73 0 1
4 229 2 1 1 0 1 0 0 880.0 23 362 7.17 1 1
5 229 2 1 1 1 1 1 1 802.0 20 308 2.2 0 1
6 229 2 1 1 0 1 0 0 652.0 20 319 2.13 0 1
7 229 2 1 1 0 1 0 0 1012.0 13 198 2.65 0 1
8 229 2 1 1 0 1 0 0 668.0 10 160 2.19 0 1
9 229 2 1 1 1 1 1 1 950.0 25 385 1.43 0 1
10 229 2 1 1 1 1 1 1 1105.0 18 279 1.97 0 1
11 229 2 1 1 0 1 0 0 1273.0 25 397 1.77 0 1
12 229 2 1 1 0 1 0 0 878.0 3 37 3.08 0 1
13 229 2 1 1 0 1 0 0 685.0 18 280 2.15 0 1
14 229 2 1 1 0 0 0 1 2054.0 24 373 7.32 1 1
15 229 2 1 1 1 1 1 1 1342.0 3 42 2.84 0 1
16 229 2 1 1 0 1 0 0 771.0 9 139 1.74 0 1
17 229 2 1 1 0 0 0 1 1126.0 7 106 7.66 1 1
18 229 2 1 1 0 0 0 1 794.0 15 228 3.15 0 1
19 229 2 1 1 0 0 0 1 1445.0 17 263 2.59 0 1
20 229 2 1 1 1 1 1 1 925.0 15 238 3.31 0 1
21 229 2 1 1 1 1 1 1 2908.0 20 314 1.94 0 1
22 229 2 1 1 0 1 0 0 2110.0 2 18 1.84 0 1
23 229 2 1 1 1 0 1 0 1000.0 17 258 2.89 0 1
24 229 2 1 1 0 1 0 0 13784.0 2 17 1.92 0 1
25 229 2 1 1 1 1 1 1 1022.0 8 125 7.28 1 1
26 229 2 1 1 1 1 1 1 764.0 9 129 3.25 0 1
27 229 2 1 1 0 0 0 1 957.0 4 59 1.99 0 1
28 229 2 1 1 0 0 0 1 10926.0 6 85 7.32 1 1
29 229 2 1 1 1 1 1 1 937.0 20 318 2.58 0 1
30 229 2 1 1 0 1 0 0 718.0 3 35 3.14 0 1
31 229 2 1 1 0 0 0 1 1808.0 30 476 2.48 0 1
32 229 2 1 1 1 0 1 0 611.0 6 86 8.01 1 1
33 229 2 1 1 0 1 0 0 446.0 25 396 1.85 0 1
34 229 2 1 1 0 0 0 1 429.0 1 6 3.17 0 1
35 229 2 1 1 1 0 1 0 433.0 15 226 3.2 0 1
36 229 2 1 1 1 1 1 1 327.0 29 456 1.5 0 1
37 229 2 1 1 0 0 0 1 1235.0 29 464 1.93 0 1
38 229 2 1 1 1 0 1 0 2434.0 18 284 1.92 0 1
39 229 2 1 1 0 1 0 0 369.0 1 10 3.15 0 1
40 229 2 1 1 1 0 1 0 490.0 28 445 7.58 1 1
41 229 2 1 1 1 1 1 1 871.0 1 4 3.18 0 1
42 229 2 1 1 1 1 1 1 581.0 3 47 3.05 0 1
43 229 2 1 1 1 1 1 1 664.0 29 452 1.8 0 1
44 229 2 1 1 0 0 0 1 675.0 10 158 2.59 0 1
45 229 2 1 1 1 1 1 1 611.0 4 60 2.6 0 1
46 229 2 1 1 1 1 1 1 859.0 29 459 1.82 0 1
47 229 2 1 1 0 1 0 0 706.0 3 36 2.98 0 1
48 229 2 1 1 1 1 1 1 818.0 15 227 2.67 0 1
49 229 2 1 1 0 1 0 0 590.0 18 285 2.27 0 1
50 229 2 1 1 1 0 1 0 708.0 13 207 3.11 0 1
51 229 2 1 1 0 1 0 0 295.0 17 266 2.6 0 1
52 229 2 1 1 1 1 1 1 670.0 2 26 2.76 0 1
53 229 2 1 1 0 1 0 0 1092.0 30 472 2.55 0 1
54 229 2 1 1 0 0 0 1 524.0 9 136 3.1 0 1
55 229 2 1 1 1 0 1 0 585.0 28 447 7.79 1 1
56 229 2 1 1 0 1 0 0 464.0 13 197 2.97 0 1
57 229 2 1 1 1 1 1 1 491.0 1 3 3.17 0 1
58 229 2 1 1 0 1 0 0 578.0 18 277 2.23 0 1
59 229 2 1 1 1 0 1 0 746.0 23 365 6.57 1 1
60 229 2 1 1 1 1 1 1 483.0 17 269 2.8 0 1
61 229 2 1 1 0 0 0 1 1396.0 30 465 2.7 0 1
62 229 2 1 1 1 0 1 0 740.0 24 382 6.86 1 1
63 229 2 1 1 1 1 1 1 521.0 18 287 2.19 0 1
64 229 2 1 1 0 1 0 0 644.0 4 56 3.02 0 1
65 229 2 1 1 0 0 0 1 518.0 10 155 1.73 0 1
66 229 2 1 1 0 1 0 0 965.0 9 140 2.97 0 1
67 229 2 1 1 1 0 1 0 407.0 9 142 3.22 0 1
68 229 2 1 1 1 1 1 1 602.0 13 202 3.09 0 1
69 229 2 1 1 0 1 0 0 714.0 4 64 2.52 0 1
70 229 2 1 1 0 0 0 1 488.0 20 307 1.87 0 1
71 229 2 1 1 0 1 0 0 1182.0 2 25 1.89 0 1
72 229 2 1 1 0 0 0 1 1805.0 15 230 3.4 0 1
73 229 2 1 1 0 0 0 1 688.0 29 463 2.0 0 1
74 229 2 1 1 1 0 1 0 674.0 7 107 7.11 1 1
75 229 2 1 1 1 1 1 1 480.0 10 149 3.02 0 1
76 229 2 1 1 0 1 0 0 703.0 27 420 7.61 1 1
77 229 2 1 1 0 1 0 0 1046.0 20 315 2.75 0 1
78 229 2 1 1 0 0 0 1 1524.0 15 240 2.57 0 1
79 229 2 1 1 0 0 0 1 726.0 29 451 1.86 0 1
80 229 2 1 1 1 0 1 0 566.0 2 24 2.31 0 1
81 229 2 1 1 1 1 1 1 443.0 30 467 1.95 0 1
82 229 2 1 1 1 1 1 1 460.0 10 154 2.88 0 1
83 229 2 1 1 1 1 1 1 523.0 7 99 7.24 1 1
84 229 2 1 1 1 1 1 1 456.0 2 29 2.68 0 1
85 229 2 1 1 1 1 1 1 473.0 4 50 2.73 0 1
86 229 2 1 1 1 1 1 1 411.0 3 33 2.97 0 1
87 229 2 1 1 0 1 0 0 494.0 22 347 6.7 1 1
88 229 2 1 1 1 1 1 1 450.0 1 9 2.49 0 1
89 229 2 1 1 0 1 0 0 973.0 17 259 2.5 0 1
90 229 2 1 1 0 1 0 0 984.0 28 433 7.18 1 1
91 229 2 1 1 0 0 0 1 539.0 7 112 7.03 1 1
92 229 2 1 1 1 1 1 1 827.0 13 206 3.41 0 1
93 229 2 1 1 1 1 1 1 899.0 30 466 2.9 0 1
94 229 2 1 1 0 1 0 0 1357.0 25 398 1.43 0 1
95 229 2 1 1 1 0 1 0 486.0 10 152 1.38 0 1
96 229 2 1 1 1 1 1 1 415.0 25 400 1.71 0 1
97 229 2 1 1 1 1 1 1 765.0 4 62 2.95 0 1
98 229 2 1 1 1 1 1 1 570.0 9 141 3.12 0 1
99 229 2 1 1 0 1 0 0 592.0 1 8 1.95 0 1
100 229 2 1 1 1 1 1 1 548.0 17 261 2.14 0 1
1 285 2 0 1 1 1 1 1 2427.0 4 62 2.95 0 1
2 285 2 0 1 1 1 1 1 1336.0 23 365 6.57 1 1
3 285 2 0 1 0 0 0 1 2346.0 15 230 3.4 0 1
4 285 2 0 1 1 0 1 0 6356.0 29 452 1.8 0 1
5 285 2 0 1 0 1 0 0 2447.0 17 263 2.59 0 1
6 285 2 0 1 0 1 0 0 1159.0 4 64 2.52 0 1
7 285 2 0 1 0 0 0 1 1506.0 30 465 2.7 0 1
8 285 2 0 1 1 1 1 1 1355.0 15 227 2.67 0 1
9 285 2 0 1 0 1 0 0 1080.0 15 228 3.15 0 1
10 285 2 0 1 1 1 1 1 819.0 3 42 2.84 0 1
11 285 2 0 1 0 0 0 1 1300.0 3 35 3.14 0 1
12 285 2 0 1 0 0 0 1 1891.0 13 197 2.97 0 1
13 285 2 0 1 1 1 1 1 1236.0 30 471 2.73 0 1
14 285 2 0 1 1 1 1 1 944.0 20 318 2.58 0 1
15 285 2 0 1 0 1 0 0 809.0 18 280 2.15 0 1
16 285 2 0 1 1 1 1 1 764.0 20 314 1.94 0 1
17 285 2 0 1 0 0 0 1 847.0 13 198 2.65 0 1
18 285 2 0 1 0 0 0 1 3367.0 25 396 1.85 0 1
19 285 2 0 1 0 1 0 0 1051.0 4 59 1.99 0 1
20 285 2 0 1 1 1 1 1 866.0 17 261 2.14 0 1
21 285 2 0 1 0 1 0 0 810.0 3 37 3.08 0 1
22 285 2 0 1 0 0 0 1 991.0 18 277 2.23 0 1
23 285 2 0 1 0 0 0 1 1592.0 4 56 3.02 0 1
24 285 2 0 1 1 1 1 1 881.0 13 207 3.11 0 1
25 285 2 0 1 1 1 1 1 1728.0 25 400 1.71 0 1
26 285 2 0 1 0 0 0 1 1001.0 1 10 3.15 0 1
27 285 2 0 1 0 0 0 1 862.0 7 112 7.03 1 1
28 285 2 0 1 1 0 1 0 2910.0 1 9 2.49 0 1
29 285 2 0 1 1 1 1 1 1040.0 4 60 2.6 0 1
30 285 2 0 1 0 1 0 0 1860.0 25 397 1.77 0 1
31 285 2 0 1 1 1 1 1 711.0 28 445 7.58 1 1
32 285 2 0 1 0 1 0 0 1198.0 20 307 1.87 0 1
33 285 2 0 1 0 0 0 1 898.0 10 160 2.19 0 1
34 285 2 0 1 1 1 1 1 794.0 15 226 3.2 0 1
35 285 2 0 1 1 1 1 1 753.0 28 447 7.79 1 1
36 285 2 0 1 1 1 1 1 785.0 24 382 6.86 1 1
37 285 2 0 1 0 0 0 1 924.0 27 420 7.61 1 1
38 285 2 0 1 0 0 0 1 849.0 24 373 7.32 1 1
39 285 2 0 1 1 0 1 0 712.0 7 99 7.24 1 1
40 285 2 0 1 0 0 0 1 876.0 28 433 7.18 1 1
41 285 2 0 1 1 1 1 1 2857.0 18 279 1.97 0 1
42 285 2 0 1 1 1 1 1 1423.0 9 141 3.12 0 1
43 285 2 0 1 0 0 0 1 845.0 29 463 2.0 0 1
44 285 2 0 1 0 1 0 0 1196.0 10 155 1.73 0 1
45 285 2 0 1 1 1 1 1 693.0 20 308 2.2 0 1
46 285 2 0 1 0 0 0 1 1018.0 30 472 2.55 0 1
47 285 2 0 1 0 0 0 1 898.0 2 17 1.92 0 1
48 285 2 0 1 1 0 1 0 797.0 17 258 2.89 0 1
49 285 2 0 1 1 1 1 1 787.0 3 33 2.97 0 1
50 285 2 0 1 1 1 1 1 853.0 25 385 1.43 0 1
51 285 2 0 1 1 1 1 1 796.0 10 149 3.02 0 1
52 285 2 0 1 1 0 1 0 766.0 25 391 1.73 0 1
53 285 2 0 1 0 0 0 1 968.0 23 362 7.17 1 1
54 285 2 0 1 1 1 1 1 701.0 3 47 3.05 0 1
55 285 2 0 1 0 0 0 1 680.0 6 85 7.32 1 1
56 285 2 0 1 0 1 0 0 1073.0 13 205 3.26 0 1
57 285 2 0 1 1 1 1 1 780.0 9 142 3.22 0 1
58 285 2 0 1 0 0 0 1 682.0 22 347 6.7 1 1
59 285 2 0 1 1 0 1 0 1091.0 30 466 2.9 0 1
60 285 2 0 1 0 1 0 0 718.0 18 285 2.27 0 1
61 285 2 0 1 1 0 1 0 870.0 13 206 3.41 0 1
62 285 2 0 1 0 1 0 0 728.0 2 25 1.89 0 1
63 285 2 0 1 0 0 0 1 871.0 7 106 7.66 1 1
64 285 2 0 1 1 1 1 1 832.0 2 24 2.31 0 1
65 285 2 0 1 0 1 0 0 838.0 17 259 2.5 0 1
66 285 2 0 1 1 1 1 1 837.0 10 154 2.88 0 1
67 285 2 0 1 0 0 0 1 714.0 30 476 2.48 0 1
68 285 2 0 1 0 1 0 0 1410.0 25 398 1.43 0 1
69 285 2 0 1 0 0 0 1 967.0 3 36 2.98 0 1
70 285 2 0 1 1 0 1 0 647.0 7 107 7.11 1 1
71 285 2 0 1 0 1 0 0 1247.0 20 315 2.75 0 1
72 285 2 0 1 0 0 0 1 833.0 1 6 3.17 0 1
73 285 2 0 1 1 0 1 0 969.0 6 86 8.01 1 1
74 285 2 0 1 0 1 0 0 4149.0 9 139 1.74 0 1
75 285 2 0 1 1 0 1 0 916.0 1 4 3.18 0 1
76 285 2 0 1 1 1 1 1 532.0 15 238 3.31 0 1
77 285 2 0 1 1 0 1 0 2882.0 2 26 2.76 0 1
78 285 2 0 1 1 1 1 1 666.0 17 269 2.8 0 1
79 285 2 0 1 1 1 1 1 1069.0 1 3 3.17 0 1
80 285 2 0 1 1 0 1 0 1918.0 13 202 3.09 0 1
81 285 2 0 1 0 0 0 1 916.0 29 464 1.93 0 1
82 285 2 0 1 1 1 1 1 994.0 2 29 2.68 0 1
83 285 2 0 1 0 1 0 0 644.0 29 451 1.86 0 1
84 285 2 0 1 1 0 1 0 834.0 10 152 1.38 0 1
85 285 2 0 1 0 1 0 0 677.0 20 319 2.13 0 1
86 285 2 0 1 0 1 0 0 1069.0 9 136 3.1 0 1
87 285 2 0 1 0 0 0 1 655.0 9 140 2.97 0 1
88 285 2 0 1 1 0 1 0 692.0 4 50 2.73 0 1
89 285 2 0 1 1 1 1 1 845.0 29 456 1.5 0 1
90 285 2 0 1 1 0 1 0 964.0 30 467 1.95 0 1
91 285 2 0 1 0 1 0 0 547.0 17 266 2.6 0 1
92 285 2 0 1 0 1 0 0 776.0 1 8 1.95 0 1
93 285 2 0 1 1 0 1 0 447.0 29 459 1.82 0 1
94 285 2 0 1 1 1 1 1 1295.0 8 125 7.28 1 1
95 285 2 0 1 1 1 1 1 725.0 9 129 3.25 0 1
96 285 2 0 1 1 1 1 1 725.0 18 287 2.19 0 1
97 285 2 0 1 0 1 0 0 642.0 15 240 2.57 0 1
98 285 2 0 1 0 0 0 1 1965.0 10 158 2.59 0 1
99 285 2 0 1 0 0 0 1 1904.0 2 18 1.84 0 1
100 285 2 0 1 1 1 1 1 967.0 18 284 1.92 0 1
1 284 1 0 1 0 0 0 1 4179.0 2 24 2.31 0 1
2 284 1 0 1 1 1 1 1 1423.0 17 266 2.6 0 1
3 284 1 0 1 1 1 1 1 886.0 20 319 2.13 0 1
4 284 1 0 1 0 0 0 1 1301.0 9 142 3.22 0 1
5 284 1 0 1 1 1 1 1 1238.0 20 307 1.87 0 1
6 284 1 0 1 0 0 0 1 950.0 23 365 6.57 1 1
7 284 1 0 1 1 1 1 1 994.0 13 205 3.26 0 1
8 284 1 0 1 0 0 0 1 830.0 30 467 1.95 0 1
9 284 1 0 1 0 0 0 1 947.0 7 107 7.11 1 1
10 284 1 0 1 1 0 1 0 1382.0 25 397 1.77 0 1
11 284 1 0 1 0 0 0 1 799.0 6 86 8.01 1 1
12 284 1 0 1 1 0 1 0 971.0 17 259 2.5 0 1
13 284 1 0 1 1 0 1 0 885.0 18 277 2.23 0 1
14 284 1 0 1 1 1 1 1 691.0 7 106 7.66 1 1
15 284 1 0 1 1 1 1 1 725.0 30 476 2.48 0 1
16 284 1 0 1 1 1 1 1 734.0 10 155 1.73 0 1
17 284 1 0 1 0 1 0 0 692.0 20 318 2.58 0 1
18 284 1 0 1 1 1 1 1 1613.0 13 197 2.97 0 1
19 284 1 0 1 0 1 0 0 892.0 1 4 3.18 0 1
20 284 1 0 1 1 0 1 0 1494.0 18 285 2.27 0 1
21 284 1 0 1 1 1 1 1 1337.0 2 18 1.84 0 1
22 284 1 0 1 0 1 0 0 1107.0 10 154 2.88 0 1
23 284 1 0 1 0 1 0 0 1209.0 15 226 3.2 0 1
24 284 1 0 1 1 1 1 1 1263.0 10 160 2.19 0 1
25 284 1 0 1 0 0 0 1 1285.0 17 261 2.14 0 1
26 284 1 0 1 1 0 1 0 2204.0 4 59 1.99 0 1
27 284 1 0 1 1 1 1 1 916.0 30 465 2.7 0 1
28 284 1 0 1 0 0 0 1 1332.0 13 207 3.11 0 1
29 284 1 0 1 0 0 0 1 979.0 28 445 7.58 1 1
30 284 1 0 1 0 0 0 1 4139.0 25 391 1.73 0 1
31 284 1 0 1 1 0 1 0 1817.0 1 8 1.95 0 1
32 284 1 0 1 0 0 0 1 1328.0 18 284 1.92 0 1
33 284 1 0 1 1 1 1 1 843.0 24 373 7.32 1 1
34 284 1 0 1 1 0 1 0 2221.0 15 240 2.57 0 1
35 284 1 0 1 0 0 0 1 955.0 2 26 2.76 0 1
36 284 1 0 1 0 0 0 1 1534.0 8 125 7.28 1 1
37 284 1 0 1 0 0 0 1 1300.0 9 129 3.25 0 1
38 284 1 0 1 0 0 0 1 1495.0 3 42 2.84 0 1
39 284 1 0 1 1 1 1 1 854.0 3 35 3.14 0 1
40 284 1 0 1 1 1 1 1 798.0 15 230 3.4 0 1
41 284 1 0 1 1 1 1 1 764.0 29 464 1.93 0 1
42 284 1 0 1 0 0 0 1 2898.0 10 152 1.38 0 1
43 284 1 0 1 1 1 1 1 1067.0 30 472 2.55 0 1
44 284 1 0 1 1 1 1 1 879.0 22 347 6.7 1 1
45 284 1 0 1 0 0 0 1 4452.0 4 62 2.95 0 1
46 284 1 0 1 0 0 0 1 1417.0 29 456 1.5 0 1
47 284 1 0 1 0 0 0 1 894.0 15 227 2.67 0 1
48 284 1 0 1 0 0 0 1 1010.0 30 471 2.73 0 1
49 284 1 0 1 1 1 1 1 706.0 1 6 3.17 0 1
50 284 1 0 1 1 0 1 0 2400.0 3 36 2.98 0 1
51 284 1 0 1 0 0 0 1 1094.0 15 238 3.31 0 1
52 284 1 0 1 0 0 0 1 1541.0 29 452 1.8 0 1
53 284 1 0 1 0 0 0 1 847.0 13 206 3.41 0 1
54 284 1 0 1 1 1 1 1 1345.0 1 10 3.15 0 1
55 284 1 0 1 0 0 0 1 4290.0 18 279 1.97 0 1
56 284 1 0 1 1 1 1 1 1244.0 4 64 2.52 0 1
57 284 1 0 1 1 1 1 1 4201.0 25 398 1.43 0 1
58 284 1 0 1 1 0 1 0 957.0 13 198 2.65 0 1
59 284 1 0 1 0 0 0 1 1357.0 4 60 2.6 0 1
60 284 1 0 1 1 1 1 1 1132.0 9 139 1.74 0 1
61 284 1 0 1 0 0 0 1 976.0 30 466 2.9 0 1
62 284 1 0 1 0 0 0 1 2416.0 25 385 1.43 0 1
63 284 1 0 1 0 1 0 0 2132.0 4 50 2.73 0 1
64 284 1 0 1 1 1 1 1 1629.0 15 228 3.15 0 1
65 284 1 0 1 1 1 1 1 708.0 29 451 1.86 0 1
66 284 1 0 1 0 0 0 1 1053.0 10 149 3.02 0 1
67 284 1 0 1 1 1 1 1 922.0 9 136 3.1 0 1
68 284 1 0 1 1 1 1 1 781.0 10 158 2.59 0 1
69 284 1 0 1 0 0 0 1 1089.0 13 202 3.09 0 1
70 284 1 0 1 1 1 1 1 941.0 28 433 7.18 1 1
71 284 1 0 1 1 1 1 1 841.0 4 56 3.02 0 1
72 284 1 0 1 0 0 0 1 900.0 7 99 7.24 1 1
73 284 1 0 1 1 1 1 1 3096.0 18 280 2.15 0 1
74 284 1 0 1 0 0 0 1 1091.0 24 382 6.86 1 1
75 284 1 0 1 1 0 1 0 991.0 29 463 2.0 0 1
76 284 1 0 1 1 0 1 0 996.0 6 85 7.32 1 1
77 284 1 0 1 0 0 0 1 3685.0 29 459 1.82 0 1
78 284 1 0 1 0 1 0 0 1311.0 20 308 2.2 0 1
79 284 1 0 1 1 1 1 1 3529.0 3 37 3.08 0 1
80 284 1 0 1 1 0 1 0 1129.0 9 140 2.97 0 1
81 284 1 0 1 0 0 0 1 2826.0 17 269 2.8 0 1
82 284 1 0 1 0 1 0 0 817.0 1 9 2.49 0 1
83 284 1 0 1 1 0 1 0 3097.0 27 420 7.61 1 1
84 284 1 0 1 1 1 1 1 7092.0 17 263 2.59 0 1
85 284 1 0 1 0 0 0 1 2339.0 9 141 3.12 0 1
86 284 1 0 1 0 1 0 0 903.0 18 287 2.19 0 1
87 284 1 0 1 0 0 0 1 1735.0 2 29 2.68 0 1
88 284 1 0 1 1 0 1 0 1224.0 2 25 1.89 0 1
89 284 1 0 1 0 0 0 1 897.0 28 447 7.79 1 1
90 284 1 0 1 1 0 1 0 1027.0 7 112 7.03 1 1
91 284 1 0 1 0 0 0 1 1048.0 20 314 1.94 0 1
92 284 1 0 1 0 1 0 0 1339.0 3 47 3.05 0 1
93 284 1 0 1 0 0 0 1 860.0 3 33 2.97 0 1
94 284 1 0 1 0 0 0 1 1606.0 17 258 2.89 0 1
95 284 1 0 1 1 0 1 0 1748.0 2 17 1.92 0 1
96 284 1 0 1 1 0 1 0 2013.0 25 396 1.85 0 1
97 284 1 0 1 0 0 0 1 1348.0 1 3 3.17 0 1
98 284 1 0 1 1 1 1 1 1002.0 23 362 7.17 1 1
99 284 1 0 1 0 0 0 1 1087.0 25 400 1.71 0 1
100 284 1 0 1 1 0 1 0 3029.0 20 315 2.75 0 1
1 70 2 1 1 0 0 0 1 17724.0 15 228 3.15 0 1
2 70 2 1 1 0 0 0 1 1434.0 24 373 7.32 1 1
3 70 2 1 1 0 0 0 1 1142.0 25 398 1.43 0 1
4 70 2 1 1 1 1 1 1 873.0 17 258 2.89 0 1
5 70 2 1 1 1 0 1 0 2062.0 4 50 2.73 0 1
6 70 2 1 1 1 1 1 1 719.0 13 206 3.41 0 1
7 70 2 1 1 1 1 1 1 1019.0 18 284 1.92 0 1
8 70 2 1 1 1 1 1 1 647.0 15 226 3.2 0 1
9 70 2 1 1 1 1 1 1 851.0 25 391 1.73 0 1
10 70 2 1 1 1 0 1 0 601.0 24 382 6.86 1 1
11 70 2 1 1 0 1 0 0 644.0 17 266 2.6 0 1
12 70 2 1 1 0 1 0 0 1122.0 17 263 2.59 0 1
13 70 2 1 1 0 0 0 1 634.0 20 319 2.13 0 1
14 70 2 1 1 0 0 0 1 785.0 29 464 1.93 0 1
15 70 2 1 1 0 1 0 0 611.0 20 315 2.75 0 1
16 70 2 1 1 1 1 1 1 934.0 13 202 3.09 0 1
17 70 2 1 1 1 0 1 0 743.0 3 47 3.05 0 1
18 70 2 1 1 1 1 1 1 738.0 15 238 3.31 0 1
19 70 2 1 1 1 1 1 1 1149.0 10 152 1.38 0 1
20 70 2 1 1 0 0 0 1 709.0 7 106 7.66 1 1
21 70 2 1 1 1 0 1 0 638.0 13 207 3.11 0 1
22 70 2 1 1 0 1 0 0 612.0 9 136 3.1 0 1
23 70 2 1 1 0 1 0 0 735.0 1 10 3.15 0 1
24 70 2 1 1 0 0 0 1 1233.0 2 18 1.84 0 1
25 70 2 1 1 1 1 1 1 728.0 9 141 3.12 0 1
26 70 2 1 1 0 0 0 1 927.0 30 472 2.55 0 1
27 70 2 1 1 0 0 0 1 893.0 2 17 1.92 0 1
28 70 2 1 1 0 0 0 1 649.0 20 307 1.87 0 1
29 70 2 1 1 1 1 1 1 786.0 23 365 6.57 1 1
30 70 2 1 1 0 1 0 0 607.0 10 160 2.19 0 1
31 70 2 1 1 1 0 1 0 420.0 28 445 7.58 1 1
32 70 2 1 1 1 1 1 1 839.0 2 26 2.76 0 1
33 70 2 1 1 1 0 1 0 1013.0 30 466 2.9 0 1
34 70 2 1 1 1 1 1 1 635.0 29 452 1.8 0 1
35 70 2 1 1 0 1 0 0 756.0 18 280 2.15 0 1
36 70 2 1 1 1 0 1 0 681.0 3 42 2.84 0 1
37 70 2 1 1 1 0 1 0 920.0 8 125 7.28 1 1
38 70 2 1 1 0 0 0 1 978.0 7 112 7.03 1 1
39 70 2 1 1 1 1 1 1 734.0 7 107 7.11 1 1
40 70 2 1 1 0 0 0 1 1043.0 9 140 2.97 0 1
41 70 2 1 1 0 1 0 0 932.0 27 420 7.61 1 1
42 70 2 1 1 0 1 0 0 1114.0 13 197 2.97 0 1
43 70 2 1 1 1 0 1 0 698.0 20 314 1.94 0 1
44 70 2 1 1 0 1 0 0 1476.0 30 476 2.48 0 1
45 70 2 1 1 1 1 1 1 801.0 9 129 3.25 0 1
46 70 2 1 1 1 0 1 0 816.0 4 60 2.6 0 1
47 70 2 1 1 0 1 0 0 1010.0 2 25 1.89 0 1
48 70 2 1 1 1 1 1 1 1103.0 3 33 2.97 0 1
49 70 2 1 1 0 1 0 0 831.0 29 451 1.86 0 1
50 70 2 1 1 1 0 1 0 679.0 1 4 3.18 0 1
51 70 2 1 1 1 1 1 1 683.0 25 400 1.71 0 1
52 70 2 1 1 0 1 0 0 870.0 28 433 7.18 1 1
53 70 2 1 1 0 0 0 1 1043.0 23 362 7.17 1 1
54 70 2 1 1 1 1 1 1 927.0 29 456 1.5 0 1
55 70 2 1 1 0 0 0 1 967.0 4 64 2.52 0 1
56 70 2 1 1 0 0 0 1 1163.0 18 285 2.27 0 1
57 70 2 1 1 0 0 0 1 979.0 30 465 2.7 0 1
58 70 2 1 1 0 1 0 0 985.0 9 139 1.74 0 1
59 70 2 1 1 0 1 0 0 1217.0 1 8 1.95 0 1
60 70 2 1 1 0 0 0 1 513.0 10 155 1.73 0 1
61 70 2 1 1 0 0 0 1 915.0 6 85 7.32 1 1
62 70 2 1 1 0 0 0 1 765.0 17 259 2.5 0 1
63 70 2 1 1 1 1 1 1 1145.0 7 99 7.24 1 1
64 70 2 1 1 0 0 0 1 883.0 22 347 6.7 1 1
65 70 2 1 1 1 0 1 0 1346.0 20 318 2.58 0 1
66 70 2 1 1 0 0 0 1 786.0 29 463 2.0 0 1
67 70 2 1 1 1 0 1 0 771.0 6 86 8.01 1 1
68 70 2 1 1 1 1 1 1 694.0 15 227 2.67 0 1
69 70 2 1 1 1 1 1 1 765.0 25 385 1.43 0 1
70 70 2 1 1 1 1 1 1 788.0 17 269 2.8 0 1
71 70 2 1 1 1 1 1 1 965.0 29 459 1.82 0 1
72 70 2 1 1 1 1 1 1 891.0 30 467 1.95 0 1
73 70 2 1 1 1 1 1 1 891.0 2 24 2.31 0 1
74 70 2 1 1 1 1 1 1 858.0 20 308 2.2 0 1
75 70 2 1 1 1 1 1 1 926.0 4 62 2.95 0 1
76 70 2 1 1 0 1 0 0 806.0 1 6 3.17 0 1
77 70 2 1 1 0 0 0 1 575.0 25 397 1.77 0 1
78 70 2 1 1 1 0 1 0 775.0 18 279 1.97 0 1
79 70 2 1 1 1 1 1 1 508.0 18 287 2.19 0 1
80 70 2 1 1 0 1 0 0 737.0 13 205 3.26 0 1
81 70 2 1 1 0 0 0 1 377.0 3 35 3.14 0 1
82 70 2 1 1 1 0 1 0 555.0 30 471 2.73 0 1
83 70 2 1 1 1 1 1 1 348.0 2 29 2.68 0 1
84 70 2 1 1 0 1 0 0 440.0 4 56 3.02 0 1
85 70 2 1 1 0 0 0 1 252.0 10 158 2.59 0 1
86 70 2 1 1 0 0 0 1 396.0 15 240 2.57 0 1
87 70 2 1 1 1 0 1 0 553.0 1 3 3.17 0 1
88 70 2 1 1 0 1 0 0 253.0 18 277 2.23 0 1
89 70 2 1 1 0 0 0 1 1271.0 25 396 1.85 0 1
90 70 2 1 1 0 1 0 0 952.0 3 36 2.98 0 1
91 70 2 1 1 0 0 0 1 1164.0 13 198 2.65 0 1
92 70 2 1 1 1 1 1 1 1206.0 1 9 2.49 0 1
93 70 2 1 1 1 1 1 1 829.0 28 447 7.79 1 1
94 70 2 1 1 1 0 1 0 1010.0 17 261 2.14 0 1
95 70 2 1 1 1 1 1 1 672.0 10 149 3.02 0 1
96 70 2 1 1 1 1 1 1 840.0 9 142 3.22 0 1
97 70 2 1 1 0 1 0 0 795.0 3 37 3.08 0 1
98 70 2 1 1 0 0 0 1 504.0 15 230 3.4 0 1
99 70 2 1 1 1 0 1 0 1015.0 10 154 2.88 0 1
100 70 2 1 1 0 1 0 0 642.0 4 59 1.99 0 1
1 15 2 1 1 0 1 0 0 2747.0 3 35 3.14 0 1
2 15 2 1 1 0 0 0 1 2438.0 17 259 2.5 0 1
3 15 2 1 1 1 1 1 1 922.0 10 154 2.88 0 1
4 15 2 1 1 1 0 1 0 1171.0 13 207 3.11 0 1
5 15 2 1 1 1 0 1 0 2202.0 18 287 2.19 0 1
6 15 2 1 1 0 0 0 1 1533.0 13 198 2.65 0 1
7 15 2 1 1 0 0 0 1 1010.0 1 10 3.15 0 1
8 15 2 1 1 1 1 1 1 990.0 7 99 7.24 1 1
9 15 2 1 1 1 1 1 1 608.0 7 107 7.11 1 1
10 15 2 1 1 1 1 1 1 1064.0 3 47 3.05 0 1
11 15 2 1 1 0 0 0 1 1005.0 18 280 2.15 0 1
12 15 2 1 1 1 0 1 0 1894.0 18 279 1.97 0 1
13 15 2 1 1 1 0 1 0 845.0 13 202 3.09 0 1
14 15 2 1 1 1 0 1 0 1080.0 10 149 3.02 0 1
15 15 2 1 1 1 1 1 1 828.0 1 4 3.18 0 1
16 15 2 1 1 1 1 1 1 1613.0 10 152 1.38 0 1
17 15 2 1 1 1 0 1 0 1255.0 4 62 2.95 0 1
18 15 2 1 1 0 1 0 0 789.0 1 6 3.17 0 1
19 15 2 1 1 1 1 1 1 759.0 1 3 3.17 0 1
20 15 2 1 1 1 1 1 1 758.0 29 452 1.8 0 1
21 15 2 1 1 0 0 0 1 858.0 23 362 7.17 1 1
22 15 2 1 1 0 1 0 0 1209.0 13 205 3.26 0 1
23 15 2 1 1 0 0 0 1 1160.0 6 85 7.32 1 1
24 15 2 1 1 0 1 0 0 782.0 10 160 2.19 0 1
25 15 2 1 1 1 1 1 1 713.0 3 33 2.97 0 1
26 15 2 1 1 1 1 1 1 1024.0 20 314 1.94 0 1
27 15 2 1 1 0 1 0 0 972.0 10 155 1.73 0 1
28 15 2 1 1 1 1 1 1 687.0 23 365 6.57 1 1
29 15 2 1 1 0 0 0 1 768.0 9 140 2.97 0 1
30 15 2 1 1 1 1 1 1 740.0 3 42 2.84 0 1
31 15 2 1 1 0 0 0 1 553.0 29 464 1.93 0 1
32 15 2 1 1 0 0 0 1 1328.0 7 112 7.03 1 1
33 15 2 1 1 1 1 1 1 845.0 28 445 7.58 1 1
34 15 2 1 1 0 1 0 0 1545.0 2 25 1.89 0 1
35 15 2 1 1 1 1 1 1 2429.0 13 206 3.41 0 1
36 15 2 1 1 0 0 0 1 983.0 2 17 1.92 0 1
37 15 2 1 1 0 0 0 1 820.0 1 8 1.95 0 1
38 15 2 1 1 0 1 0 0 874.0 30 465 2.7 0 1
39 15 2 1 1 1 1 1 1 533.0 9 141 3.12 0 1
40 15 2 1 1 1 0 1 0 735.0 29 459 1.82 0 1
41 15 2 1 1 0 0 0 1 720.0 30 472 2.55 0 1
42 15 2 1 1 0 1 0 0 599.0 20 307 1.87 0 1
43 15 2 1 1 1 0 1 0 1300.0 30 466 2.9 0 1
44 15 2 1 1 0 1 0 0 1199.0 30 476 2.48 0 1
45 15 2 1 1 1 1 1 1 1130.0 20 318 2.58 0 1
46 15 2 1 1 1 1 1 1 615.0 9 142 3.22 0 1
47 15 2 1 1 0 0 0 1 719.0 10 158 2.59 0 1
48 15 2 1 1 1 0 1 0 668.0 8 125 7.28 1 1
49 15 2 1 1 0 0 0 1 974.0 29 451 1.86 0 1
50 15 2 1 1 0 1 0 0 582.0 15 240 2.57 0 1
51 15 2 1 1 1 1 1 1 771.0 2 29 2.68 0 1
52 15 2 1 1 1 1 1 1 645.0 29 456 1.5 0 1
53 15 2 1 1 0 1 0 0 746.0 3 36 2.98 0 1
54 15 2 1 1 1 1 1 1 3048.0 17 258 2.89 0 1
55 15 2 1 1 1 0 1 0 585.0 18 284 1.92 0 1
56 15 2 1 1 1 0 1 0 2742.0 25 391 1.73 0 1
57 15 2 1 1 0 1 0 0 861.0 17 263 2.59 0 1
58 15 2 1 1 1 1 1 1 614.0 6 86 8.01 1 1
59 15 2 1 1 1 1 1 1 1440.0 2 26 2.76 0 1
60 15 2 1 1 1 1 1 1 1133.0 25 400 1.71 0 1
61 15 2 1 1 0 0 0 1 945.0 9 139 1.74 0 1
62 15 2 1 1 0 0 0 1 853.0 20 315 2.75 0 1
63 15 2 1 1 1 1 1 1 925.0 24 382 6.86 1 1
64 15 2 1 1 1 1 1 1 983.0 15 227 2.67 0 1
65 15 2 1 1 1 0 1 0 764.0 30 467 1.95 0 1
66 15 2 1 1 0 1 0 0 692.0 20 319 2.13 0 1
67 15 2 1 1 0 0 0 1 876.0 7 106 7.66 1 1
68 15 2 1 1 0 0 0 1 484.0 4 59 1.99 0 1
69 15 2 1 1 0 1 0 0 928.0 4 56 3.02 0 1
70 15 2 1 1 1 1 1 1 630.0 17 261 2.14 0 1
71 15 2 1 1 0 0 0 1 954.0 4 64 2.52 0 1
72 15 2 1 1 1 1 1 1 582.0 20 308 2.2 0 1
73 15 2 1 1 1 1 1 1 662.0 28 447 7.79 1 1
74 15 2 1 1 1 0 1 0 777.0 25 385 1.43 0 1
75 15 2 1 1 0 1 0 0 750.0 25 396 1.85 0 1
76 15 2 1 1 0 1 0 0 761.0 15 230 3.4 0 1
77 15 2 1 1 1 1 1 1 794.0 9 129 3.25 0 1
78 15 2 1 1 1 1 1 1 711.0 15 226 3.2 0 1
79 15 2 1 1 0 1 0 0 1195.0 2 18 1.84 0 1
80 15 2 1 1 0 1 0 0 794.0 3 37 3.08 0 1
81 15 2 1 1 0 1 0 0 695.0 29 463 2.0 0 1
82 15 2 1 1 0 0 0 1 811.0 25 398 1.43 0 1
83 15 2 1 1 1 0 1 0 1237.0 4 60 2.6 0 1
84 15 2 1 1 1 1 1 1 636.0 17 269 2.8 0 1
85 15 2 1 1 0 0 0 1 741.0 24 373 7.32 1 1
86 15 2 1 1 1 0 1 0 803.0 2 24 2.31 0 1
87 15 2 1 1 1 1 1 1 613.0 1 9 2.49 0 1
88 15 2 1 1 0 1 0 0 1384.0 27 420 7.61 1 1
89 15 2 1 1 0 1 0 0 1048.0 13 197 2.97 0 1
90 15 2 1 1 0 0 0 1 693.0 25 397 1.77 0 1
91 15 2 1 1 1 0 1 0 1215.0 15 238 3.31 0 1
92 15 2 1 1 0 0 0 1 700.0 22 347 6.7 1 1
93 15 2 1 1 0 1 0 0 590.0 9 136 3.1 0 1
94 15 2 1 1 0 1 0 0 556.0 18 277 2.23 0 1
95 15 2 1 1 0 1 0 0 735.0 18 285 2.27 0 1
96 15 2 1 1 0 1 0 0 1412.0 17 266 2.6 0 1
97 15 2 1 1 1 0 1 0 1142.0 4 50 2.73 0 1
98 15 2 1 1 0 0 0 1 1701.0 28 433 7.18 1 1
99 15 2 1 1 0 0 0 1 942.0 15 228 3.15 0 1
100 15 2 1 1 1 0 1 0 1450.0 30 471 2.73 0 1
1 40 1 0 1 0 0 0 1 6981.0 7 99 7.24 1 1
2 40 1 0 1 1 1 1 1 1666.0 1 6 3.17 0 1
3 40 1 0 1 0 1 0 0 1311.0 20 308 2.2 0 1
4 40 1 0 1 1 0 1 0 2313.0 10 158 2.59 0 1
5 40 1 0 1 1 1 1 1 2073.0 4 64 2.52 0 1
6 40 1 0 1 0 1 0 0 3560.0 25 400 1.71 0 1
7 40 1 0 1 0 0 0 1 2685.0 25 385 1.43 0 1
8 40 1 0 1 1 1 1 1 1211.0 3 37 3.08 0 1
9 40 1 0 1 1 1 1 1 772.0 20 319 2.13 0 1
10 40 1 0 1 1 1 1 1 791.0 22 347 6.7 1 1
11 40 1 0 1 0 0 0 1 1474.0 4 62 2.95 0 1
12 40 1 0 1 1 0 1 0 960.0 17 259 2.5 0 1
13 40 1 0 1 1 1 1 1 812.0 10 155 1.73 0 1
14 40 1 0 1 0 0 0 1 1014.0 24 382 6.86 1 1
15 40 1 0 1 1 0 1 0 914.0 9 136 3.1 0 1
16 40 1 0 1 1 1 1 1 2023.0 4 56 3.02 0 1
17 40 1 0 1 0 0 0 1 1046.0 8 125 7.28 1 1
18 40 1 0 1 1 1 1 1 1186.0 7 112 7.03 1 1
19 40 1 0 1 1 0 1 0 1078.0 17 266 2.6 0 1
20 40 1 0 1 1 1 1 1 960.0 18 285 2.27 0 1
21 40 1 0 1 0 1 0 0 1356.0 13 206 3.41 0 1
22 40 1 0 1 1 1 1 1 559.0 18 280 2.15 0 1
23 40 1 0 1 1 1 1 1 711.0 2 18 1.84 0 1
24 40 1 0 1 0 0 0 1 728.0 28 445 7.58 1 1
25 40 1 0 1 0 1 0 0 2454.0 29 459 1.82 0 1
26 40 1 0 1 1 1 1 1 829.0 17 263 2.59 0 1
27 40 1 0 1 1 1 1 1 702.0 29 451 1.86 0 1
28 40 1 0 1 0 1 0 0 588.0 18 287 2.19 0 1
29 40 1 0 1 0 1 0 0 1352.0 29 452 1.8 0 1
30 40 1 0 1 1 1 1 1 2636.0 15 228 3.15 0 1
31 40 1 0 1 0 1 0 0 806.0 3 47 3.05 0 1
32 40 1 0 1 1 1 1 1 896.0 15 230 3.4 0 1
33 40 1 0 1 0 0 0 1 1326.0 18 279 1.97 0 1
34 40 1 0 1 0 0 0 1 1668.0 29 456 1.5 0 1
35 40 1 0 1 0 0 0 1 698.0 6 86 8.01 1 1
36 40 1 0 1 1 1 1 1 1025.0 30 472 2.55 0 1
37 40 1 0 1 0 0 0 1 2690.0 1 3 3.17 0 1
38 40 1 0 1 0 1 0 0 1163.0 10 149 3.02 0 1
39 40 1 0 1 0 0 0 1 1808.0 15 226 3.2 0 1
40 40 1 0 1 1 1 1 1 784.0 20 307 1.87 0 1
41 40 1 0 1 0 1 0 0 763.0 20 318 2.58 0 1
42 40 1 0 1 1 1 1 1 1337.0 28 433 7.18 1 1
43 40 1 0 1 0 0 0 1 1733.0 15 238 3.31 0 1
44 40 1 0 1 0 1 0 0 2365.0 1 4 3.18 0 1
45 40 1 0 1 1 1 1 1 1446.0 13 197 2.97 0 1
46 40 1 0 1 0 0 0 1 1998.0 17 258 2.89 0 1
47 40 1 0 1 0 1 0 0 731.0 10 154 2.88 0 1
48 40 1 0 1 1 1 1 1 806.0 29 463 2.0 0 1
49 40 1 0 1 1 0 1 0 1952.0 13 205 3.26 0 1
50 40 1 0 1 1 1 1 1 734.0 24 373 7.32 1 1
51 40 1 0 1 1 1 1 1 792.0 2 17 1.92 0 1
52 40 1 0 1 1 1 1 1 750.0 25 397 1.77 0 1
53 40 1 0 1 0 1 0 0 1324.0 20 314 1.94 0 1
54 40 1 0 1 1 1 1 1 1018.0 1 10 3.15 0 1
55 40 1 0 1 0 0 0 1 1001.0 18 284 1.92 0 1
56 40 1 0 1 1 1 1 1 1111.0 25 398 1.43 0 1
57 40 1 0 1 0 1 0 0 1056.0 2 29 2.68 0 1
58 40 1 0 1 0 1 0 0 670.0 3 42 2.84 0 1
59 40 1 0 1 1 1 1 1 872.0 3 36 2.98 0 1
60 40 1 0 1 1 1 1 1 1378.0 1 8 1.95 0 1
61 40 1 0 1 1 1 1 1 849.0 27 420 7.61 1 1
62 40 1 0 1 1 0 1 0 1096.0 10 160 2.19 0 1
63 40 1 0 1 0 1 0 0 1025.0 30 471 2.73 0 1
64 40 1 0 1 0 0 0 1 1329.0 4 50 2.73 0 1
65 40 1 0 1 0 0 0 1 1874.0 4 60 2.6 0 1
66 40 1 0 1 0 1 0 0 671.0 3 33 2.97 0 1
67 40 1 0 1 0 1 0 0 1267.0 17 261 2.14 0 1
68 40 1 0 1 0 1 0 0 690.0 30 467 1.95 0 1
69 40 1 0 1 1 1 1 1 1484.0 15 240 2.57 0 1
70 40 1 0 1 1 0 1 0 1076.0 13 198 2.65 0 1
71 40 1 0 1 0 0 0 1 1298.0 9 141 3.12 0 1
72 40 1 0 1 1 1 1 1 862.0 3 35 3.14 0 1
73 40 1 0 1 0 0 0 1 758.0 23 365 6.57 1 1
74 40 1 0 1 1 0 1 0 1912.0 30 476 2.48 0 1
75 40 1 0 1 1 1 1 1 947.0 30 465 2.7 0 1
76 40 1 0 1 0 1 0 0 847.0 2 24 2.31 0 1
77 40 1 0 1 0 1 0 0 916.0 13 202 3.09 0 1
78 40 1 0 1 0 0 0 1 4317.0 9 142 3.22 0 1
79 40 1 0 1 0 1 0 0 883.0 25 391 1.73 0 1
80 40 1 0 1 1 0 1 0 2313.0 25 396 1.85 0 1
81 40 1 0 1 0 1 0 0 941.0 10 152 1.38 0 1
82 40 1 0 1 0 1 0 0 850.0 13 207 3.11 0 1
83 40 1 0 1 1 1 1 1 1602.0 20 315 2.75 0 1
84 40 1 0 1 0 0 0 1 966.0 28 447 7.79 1 1
85 40 1 0 1 1 1 1 1 891.0 9 140 2.97 0 1
86 40 1 0 1 0 0 0 1 1501.0 7 107 7.11 1 1
87 40 1 0 1 1 0 1 0 1112.0 2 25 1.89 0 1
88 40 1 0 1 1 1 1 1 2147.0 29 464 1.93 0 1
89 40 1 0 1 0 0 0 1 807.0 1 9 2.49 0 1
90 40 1 0 1 1 1 1 1 1234.0 23 362 7.17 1 1
91 40 1 0 1 0 0 0 1 667.0 17 269 2.8 0 1
92 40 1 0 1 1 1 1 1 919.0 18 277 2.23 0 1
93 40 1 0 1 1 1 1 1 913.0 6 85 7.32 1 1
94 40 1 0 1 1 0 1 0 1092.0 4 59 1.99 0 1
95 40 1 0 1 0 0 0 1 1553.0 30 466 2.9 0 1
96 40 1 0 1 1 1 1 1 2018.0 9 139 1.74 0 1
97 40 1 0 1 0 0 0 1 1881.0 9 129 3.25 0 1
98 40 1 0 1 0 1 0 0 1069.0 2 26 2.76 0 1
99 40 1 0 1 0 1 0 0 1098.0 15 227 2.67 0 1
100 40 1 0 1 1 1 1 1 1535.0 7 106 7.66 1 1
1 306 1 1 1 1 0 1 0 2853.0 4 56 3.02 0 0
2 306 1 1 1 0 0 0 1 2221.0 8 125 7.28 1 0
3 306 1 1 1 1 1 1 1 1954.0 7 112 7.03 1 0
4 306 1 1 1 1 1 1 1 1999.0 28 433 7.18 1 0
5 306 1 1 1 0 1 0 0 1200.0 2 26 2.76 0 0
6 306 1 1 1 1 1 1 1 1181.0 15 230 3.4 0 0
7 306 1 1 1 0 0 0 1 1210.0 1 3 3.17 0 0
8 306 1 1 1 0 0 0 1 984.0 18 284 1.92 0 0
9 306 1 1 1 1 0 1 0 1136.0 30 465 2.7 0 0
10 306 1 1 1 1 1 1 1 3529.0 25 398 1.43 0 0
11 306 1 1 1 0 1 0 0 1169.0 29 459 1.82 0 0
12 306 1 1 1 1 0 1 0 1003.0 20 315 2.75 0 0
13 306 1 1 1 0 0 0 1 1080.0 3 42 2.84 0 0
14 306 1 1 1 1 1 1 1 1804.0 15 240 2.57 0 0
15 306 1 1 1 1 1 1 1 825.0 3 35 3.14 0 0
16 306 1 1 1 0 0 0 1 1202.0 30 466 2.9 0 0
17 306 1 1 1 0 1 0 0 1485.0 15 238 3.31 0 0
18 306 1 1 1 0 0 0 1 854.0 9 141 3.12 0 0
19 306 1 1 1 0 1 0 0 1005.0 2 24 2.31 0 0
20 306 1 1 1 1 1 1 1 645.0 4 59 1.99 0 0
21 306 1 1 1 1 1 1 1 697.0 29 463 2.0 0 0
22 306 1 1 1 1 0 1 0 587.0 4 64 2.52 0 0
23 306 1 1 1 0 0 0 1 1808.0 25 385 1.43 0 0
24 306 1 1 1 1 0 1 0 885.0 25 396 1.85 0 0
25 306 1 1 1 1 1 1 1 807.0 10 160 2.19 0 0
26 306 1 1 1 1 1 1 1 788.0 13 197 2.97 0 0
27 306 1 1 1 1 1 1 1 668.0 13 198 2.65 0 0
28 306 1 1 1 0 0 0 1 864.0 1 9 2.49 0 0
29 306 1 1 1 0 1 0 0 1030.0 9 142 3.22 0 0
30 306 1 1 1 1 1 1 1 871.0 1 6 3.17 0 0
31 306 1 1 1 1 1 1 1 1011.0 20 319 2.13 0 0
32 306 1 1 1 1 1 1 1 702.0 17 266 2.6 0 0
33 306 1 1 1 1 0 1 0 746.0 9 136 3.1 0 0
34 306 1 1 1 0 1 0 0 774.0 4 50 2.73 0 0
35 306 1 1 1 0 1 0 0 578.0 25 391 1.73 0 0
36 306 1 1 1 0 1 0 0 586.0 3 47 3.05 0 0
37 306 1 1 1 1 1 1 1 880.0 20 307 1.87 0 0
38 306 1 1 1 0 0 0 1 941.0 23 365 6.57 1 0
39 306 1 1 1 1 1 1 1 673.0 15 228 3.15 0 0
40 306 1 1 1 1 0 1 0 792.0 29 451 1.86 0 0
41 306 1 1 1 0 1 0 0 662.0 13 207 3.11 0 0
42 306 1 1 1 1 1 1 1 1216.0 30 476 2.48 0 0
43 306 1 1 1 1 1 1 1 845.0 6 85 7.32 1 0
44 306 1 1 1 1 0 1 0 703.0 7 106 7.66 1 0
45 306 1 1 1 0 1 0 0 1060.0 30 467 1.95 0 0
46 306 1 1 1 0 1 0 0 640.0 3 33 2.97 0 0
47 306 1 1 1 0 1 0 0 746.0 18 287 2.19 0 0
48 306 1 1 1 1 1 1 1 1178.0 30 472 2.55 0 0
49 306 1 1 1 0 1 0 0 1876.0 4 60 2.6 0 0
50 306 1 1 1 1 1 1 1 1200.0 24 373 7.32 1 0
51 306 1 1 1 1 1 1 1 761.0 23 362 7.17 1 0
52 306 1 1 1 1 1 1 1 1081.0 13 205 3.26 0 0
53 306 1 1 1 1 0 1 0 1351.0 18 280 2.15 0 0
54 306 1 1 1 0 1 0 0 784.0 20 318 2.58 0 0
55 306 1 1 1 1 1 1 1 1426.0 1 10 3.15 0 0
56 306 1 1 1 1 1 1 1 947.0 2 25 1.89 0 0
57 306 1 1 1 0 1 0 0 1077.0 17 258 2.89 0 0
58 306 1 1 1 1 1 1 1 1058.0 2 17 1.92 0 0
59 306 1 1 1 1 1 1 1 817.0 22 347 6.7 1 0
60 306 1 1 1 1 1 1 1 1325.0 9 140 2.97 0 0
61 306 1 1 1 1 0 1 0 1180.0 10 158 2.59 0 0
62 306 1 1 1 1 1 1 1 1227.0 17 263 2.59 0 0
63 306 1 1 1 0 1 0 0 677.0 7 107 7.11 1 0
64 306 1 1 1 1 1 1 1 950.0 17 259 2.5 0 0
65 306 1 1 1 1 1 1 1 965.0 1 8 1.95 0 0
66 306 1 1 1 0 0 0 1 1858.0 28 447 7.79 1 0
67 306 1 1 1 0 0 0 1 1690.0 30 471 2.73 0 0
68 306 1 1 1 0 0 0 1 1077.0 9 129 3.25 0 0
69 306 1 1 1 0 1 0 0 656.0 17 269 2.8 0 0
70 306 1 1 1 0 0 0 1 865.0 7 99 7.24 1 0
71 306 1 1 1 0 1 0 0 695.0 4 62 2.95 0 0
72 306 1 1 1 0 1 0 0 582.0 25 400 1.71 0 0
73 306 1 1 1 0 1 0 0 891.0 10 149 3.02 0 0
74 306 1 1 1 1 0 1 0 959.0 29 464 1.93 0 0
75 306 1 1 1 0 0 0 1 2151.0 6 86 8.01 1 0
76 306 1 1 1 0 1 0 0 668.0 17 261 2.14 0 0
77 306 1 1 1 0 1 0 0 734.0 20 308 2.2 0 0
78 306 1 1 1 1 1 1 1 6818.0 25 397 1.77 0 0
79 306 1 1 1 1 0 1 0 2845.0 27 420 7.61 1 0
80 306 1 1 1 1 1 1 1 907.0 2 18 1.84 0 0
81 306 1 1 1 0 1 0 0 2095.0 15 226 3.2 0 0
82 306 1 1 1 0 1 0 0 672.0 2 29 2.68 0 0
83 306 1 1 1 0 1 0 0 682.0 13 206 3.41 0 0
84 306 1 1 1 0 0 0 1 846.0 15 227 2.67 0 0
85 306 1 1 1 0 1 0 0 747.0 18 279 1.97 0 0
86 306 1 1 1 0 0 0 1 926.0 28 445 7.58 1 0
87 306 1 1 1 1 1 1 1 1029.0 9 139 1.74 0 0
88 306 1 1 1 1 0 1 0 1474.0 18 277 2.23 0 0
89 306 1 1 1 1 1 1 1 794.0 3 36 2.98 0 0
90 306 1 1 1 0 0 0 1 878.0 29 456 1.5 0 0
91 306 1 1 1 0 0 0 1 692.0 29 452 1.8 0 0
92 306 1 1 1 0 1 0 0 4085.0 20 314 1.94 0 0
93 306 1 1 1 1 1 1 1 855.0 3 37 3.08 0 0
94 306 1 1 1 0 0 0 1 1433.0 24 382 6.86 1 0
95 306 1 1 1 0 1 0 0 952.0 10 152 1.38 0 0
96 306 1 1 1 0 1 0 0 980.0 13 202 3.09 0 0
97 306 1 1 1 0 0 0 1 1084.0 10 154 2.88 0 0
98 306 1 1 1 1 1 1 1 943.0 10 155 1.73 0 0
99 306 1 1 1 1 0 1 0 614.0 18 285 2.27 0 0
100 306 1 1 1 0 1 0 0 446.0 1 4 3.18 0 0
1 67 1 0 1 1 0 1 0 5340.0 4 59 1.99 0 0
2 67 1 0 1 0 1 0 0 1550.0 1 4 3.18 0 0
3 67 1 0 1 0 1 0 0 926.0 4 62 2.95 0 0
4 67 1 0 1 0 0 0 1 1220.0 20 318 2.58 0 0
5 67 1 0 1 0 0 0 1 967.0 28 445 7.58 1 0
6 67 1 0 1 1 0 1 0 1304.0 13 197 2.97 0 0
7 67 1 0 1 0 1 0 0 876.0 9 142 3.22 0 0
8 67 1 0 1 0 0 0 1 976.0 2 24 2.31 0 0
9 67 1 0 1 1 1 1 1 1182.0 15 240 2.57 0 0
10 67 1 0 1 1 0 1 0 873.0 15 228 3.15 0 0
11 67 1 0 1 1 1 1 1 681.0 20 319 2.13 0 0
12 67 1 0 1 0 0 0 1 1131.0 15 238 3.31 0 0
13 67 1 0 1 0 0 0 1 1513.0 17 261 2.14 0 0
14 67 1 0 1 0 1 0 0 1282.0 2 29 2.68 0 0
15 67 1 0 1 0 1 0 0 1446.0 18 287 2.19 0 0
16 67 1 0 1 1 0 1 0 938.0 30 472 2.55 0 0
17 67 1 0 1 1 1 1 1 4281.0 2 25 1.89 0 0
18 67 1 0 1 0 1 0 0 768.0 10 152 1.38 0 0
19 67 1 0 1 1 1 1 1 1629.0 4 56 3.02 0 0
20 67 1 0 1 0 0 0 1 753.0 23 365 6.57 1 0
21 67 1 0 1 1 0 1 0 951.0 7 112 7.03 1 0
22 67 1 0 1 0 1 0 0 1407.0 30 466 2.9 0 0
23 67 1 0 1 0 0 0 1 1094.0 9 141 3.12 0 0
24 67 1 0 1 1 0 1 0 832.0 18 277 2.23 0 0
25 67 1 0 1 0 1 0 0 2486.0 15 226 3.2 0 0
26 67 1 0 1 1 0 1 0 1490.0 13 198 2.65 0 0
27 67 1 0 1 1 0 1 0 917.0 24 373 7.32 1 0
28 67 1 0 1 0 1 0 0 1649.0 15 227 2.67 0 0
29 67 1 0 1 1 0 1 0 1494.0 17 266 2.6 0 0
30 67 1 0 1 0 0 0 1 837.0 8 125 7.28 1 0
31 67 1 0 1 1 1 1 1 1121.0 17 263 2.59 0 0
32 67 1 0 1 1 1 1 1 795.0 1 8 1.95 0 0
33 67 1 0 1 1 0 1 0 1571.0 1 6 3.17 0 0
34 67 1 0 1 0 0 0 1 802.0 6 86 8.01 1 0
35 67 1 0 1 1 1 1 1 795.0 2 18 1.84 0 0
36 67 1 0 1 1 1 1 1 1113.0 4 64 2.52 0 0
37 67 1 0 1 0 1 0 0 770.0 29 452 1.8 0 0
38 67 1 0 1 0 0 0 1 738.0 1 9 2.49 0 0
39 67 1 0 1 0 0 0 1 1713.0 25 391 1.73 0 0
40 67 1 0 1 1 0 1 0 1435.0 25 397 1.77 0 0
41 67 1 0 1 0 1 0 0 715.0 3 47 3.05 0 0
42 67 1 0 1 0 1 0 0 3895.0 13 207 3.11 0 0
43 67 1 0 1 0 0 0 1 778.0 3 42 2.84 0 0
44 67 1 0 1 0 1 0 0 1458.0 10 149 3.02 0 0
45 67 1 0 1 1 1 1 1 1312.0 29 463 2.0 0 0
46 67 1 0 1 1 1 1 1 2479.0 3 37 3.08 0 0
47 67 1 0 1 1 1 1 1 1289.0 10 160 2.19 0 0
48 67 1 0 1 1 1 1 1 846.0 20 307 1.87 0 0
49 67 1 0 1 1 0 1 0 1064.0 9 140 2.97 0 0
50 67 1 0 1 1 1 1 1 1157.0 2 17 1.92 0 0
51 67 1 0 1 0 1 0 0 971.0 13 206 3.41 0 0
52 67 1 0 1 1 1 1 1 1227.0 15 230 3.4 0 0
53 67 1 0 1 0 1 0 0 1132.0 10 154 2.88 0 0
54 67 1 0 1 1 0 1 0 900.0 9 136 3.1 0 0
55 67 1 0 1 1 1 1 1 1123.0 29 451 1.86 0 0
56 67 1 0 1 0 1 0 0 890.0 25 400 1.71 0 0
57 67 1 0 1 1 1 1 1 711.0 3 35 3.14 0 0
58 67 1 0 1 1 0 1 0 783.0 23 362 7.17 1 0
59 67 1 0 1 0 1 0 0 771.0 18 279 1.97 0 0
60 67 1 0 1 1 1 1 1 1182.0 13 205 3.26 0 0
61 67 1 0 1 0 1 0 0 856.0 18 284 1.92 0 0
62 67 1 0 1 0 1 0 0 568.0 4 50 2.73 0 0
63 67 1 0 1 0 1 0 0 1236.0 20 308 2.2 0 0
64 67 1 0 1 0 0 0 1 749.0 4 60 2.6 0 0
65 67 1 0 1 1 0 1 0 1425.0 22 347 6.7 1 0
66 67 1 0 1 1 1 1 1 800.0 25 396 1.85 0 0
67 67 1 0 1 1 1 1 1 933.0 29 464 1.93 0 0
68 67 1 0 1 0 1 0 0 1470.0 1 3 3.17 0 0
69 67 1 0 1 1 1 1 1 1754.0 10 158 2.59 0 0
70 67 1 0 1 0 1 0 0 1132.0 30 467 1.95 0 0
71 67 1 0 1 1 0 1 0 995.0 30 465 2.7 0 0
72 67 1 0 1 1 1 1 1 747.0 25 398 1.43 0 0
73 67 1 0 1 1 1 1 1 1351.0 3 36 2.98 0 0
74 67 1 0 1 0 1 0 0 3145.0 2 26 2.76 0 0
75 67 1 0 1 0 0 0 1 1240.0 30 471 2.73 0 0
76 67 1 0 1 1 1 1 1 1579.0 18 285 2.27 0 0
77 67 1 0 1 0 0 0 1 979.0 28 447 7.79 1 0
78 67 1 0 1 0 0 0 1 838.0 7 99 7.24 1 0
79 67 1 0 1 1 0 1 0 660.0 28 433 7.18 1 0
80 67 1 0 1 1 0 1 0 837.0 6 85 7.32 1 0
81 67 1 0 1 1 1 1 1 993.0 20 315 2.75 0 0
82 67 1 0 1 1 1 1 1 1509.0 18 280 2.15 0 0
83 67 1 0 1 0 1 0 0 1147.0 25 385 1.43 0 0
84 67 1 0 1 1 0 1 0 784.0 17 259 2.5 0 0
85 67 1 0 1 0 1 0 0 1135.0 7 107 7.11 1 0
86 67 1 0 1 0 0 0 1 906.0 13 202 3.09 0 0
87 67 1 0 1 1 0 1 0 761.0 7 106 7.66 1 0
88 67 1 0 1 1 1 1 1 904.0 30 476 2.48 0 0
89 67 1 0 1 0 1 0 0 1060.0 17 269 2.8 0 0
90 67 1 0 1 1 0 1 0 1421.0 27 420 7.61 1 0
91 67 1 0 1 1 0 1 0 1307.0 10 155 1.73 0 0
92 67 1 0 1 0 1 0 0 656.0 20 314 1.94 0 0
93 67 1 0 1 1 1 1 1 701.0 1 10 3.15 0 0
94 67 1 0 1 0 1 0 0 1017.0 17 258 2.89 0 0
95 67 1 0 1 0 1 0 0 907.0 3 33 2.97 0 0
96 67 1 0 1 0 0 0 1 1673.0 9 129 3.25 0 0
97 67 1 0 1 1 0 1 0 1196.0 9 139 1.74 0 0
98 67 1 0 1 0 0 0 1 1336.0 24 382 6.86 1 0
99 67 1 0 1 0 0 0 1 1581.0 29 459 1.82 0 0
100 67 1 0 1 0 1 0 0 1116.0 29 456 1.5 0 0
1 110 2 1 1 0 1 0 0 4965.0 20 315 2.75 0 1
2 110 2 1 1 1 1 1 1 2801.0 2 24 2.31 0 1
3 110 2 1 1 0 1 0 0 1816.0 20 319 2.13 0 1
4 110 2 1 1 0 0 0 1 2134.0 2 25 1.89 0 1
5 110 2 1 1 0 0 0 1 1141.0 15 230 3.4 0 1
6 110 2 1 1 1 1 1 1 1469.0 17 258 2.89 0 1
7 110 2 1 1 0 0 0 1 1390.0 29 464 1.93 0 1
8 110 2 1 1 0 1 0 0 998.0 10 158 2.59 0 1
9 110 2 1 1 1 1 1 1 1437.0 13 206 3.41 0 1
10 110 2 1 1 0 0 0 1 2153.0 1 6 3.17 0 1
11 110 2 1 1 1 1 1 1 791.0 10 154 2.88 0 1
12 110 2 1 1 0 1 0 0 1950.0 18 277 2.23 0 1
13 110 2 1 1 0 1 0 0 931.0 25 396 1.85 0 1
14 110 2 1 1 0 0 0 1 1587.0 15 240 2.57 0 1
15 110 2 1 1 1 1 1 1 729.0 2 26 2.76 0 1
16 110 2 1 1 1 1 1 1 850.0 7 107 7.11 1 1
17 110 2 1 1 1 1 1 1 651.0 23 365 6.57 1 1
18 110 2 1 1 0 0 0 1 1263.0 27 420 7.61 1 1
19 110 2 1 1 1 1 1 1 769.0 8 125 7.28 1 1
20 110 2 1 1 1 1 1 1 763.0 15 227 2.67 0 1
21 110 2 1 1 0 1 0 0 906.0 13 197 2.97 0 1
22 110 2 1 1 0 0 0 1 1293.0 13 205 3.26 0 1
23 110 2 1 1 0 0 0 1 911.0 9 139 1.74 0 1
24 110 2 1 1 0 0 0 1 758.0 23 362 7.17 1 1
25 110 2 1 1 1 1 1 1 1605.0 9 129 3.25 0 1
26 110 2 1 1 1 1 1 1 3328.0 25 400 1.71 0 1
27 110 2 1 1 0 0 0 1 1079.0 4 64 2.52 0 1
28 110 2 1 1 0 0 0 1 2258.0 6 85 7.32 1 1
29 110 2 1 1 1 0 1 0 1212.0 2 29 2.68 0 1
30 110 2 1 1 0 0 0 1 786.0 22 347 6.7 1 1
31 110 2 1 1 1 1 1 1 739.0 24 382 6.86 1 1
32 110 2 1 1 1 1 1 1 907.0 4 60 2.6 0 1
33 110 2 1 1 0 0 0 1 902.0 2 18 1.84 0 1
34 110 2 1 1 0 0 0 1 996.0 20 307 1.87 0 1
35 110 2 1 1 0 0 0 1 815.0 28 433 7.18 1 1
36 110 2 1 1 1 1 1 1 687.0 6 86 8.01 1 1
37 110 2 1 1 1 1 1 1 841.0 13 202 3.09 0 1
38 110 2 1 1 1 0 1 0 1068.0 17 269 2.8 0 1
39 110 2 1 1 1 0 1 0 747.0 30 466 2.9 0 1
40 110 2 1 1 0 0 0 1 916.0 25 397 1.77 0 1
41 110 2 1 1 1 1 1 1 874.0 3 42 2.84 0 1
42 110 2 1 1 1 1 1 1 757.0 9 142 3.22 0 1
43 110 2 1 1 0 0 0 1 988.0 3 36 2.98 0 1
44 110 2 1 1 0 1 0 0 1383.0 1 10 3.15 0 1
45 110 2 1 1 1 1 1 1 902.0 28 445 7.58 1 1
46 110 2 1 1 0 0 0 1 743.0 18 280 2.15 0 1
47 110 2 1 1 0 1 0 0 950.0 10 155 1.73 0 1
48 110 2 1 1 1 1 1 1 919.0 9 141 3.12 0 1
49 110 2 1 1 1 1 1 1 1082.0 30 471 2.73 0 1
50 110 2 1 1 1 0 1 0 897.0 3 33 2.97 0 1
51 110 2 1 1 1 1 1 1 1034.0 15 226 3.2 0 1
52 110 2 1 1 0 0 0 1 744.0 29 463 2.0 0 1
53 110 2 1 1 0 0 0 1 870.0 30 465 2.7 0 1
54 110 2 1 1 0 1 0 0 822.0 15 228 3.15 0 1
55 110 2 1 1 1 0 1 0 2835.0 29 459 1.82 0 1
56 110 2 1 1 1 1 1 1 865.0 1 4 3.18 0 1
57 110 2 1 1 0 0 0 1 918.0 10 160 2.19 0 1
58 110 2 1 1 0 1 0 0 803.0 2 17 1.92 0 1
59 110 2 1 1 0 0 0 1 802.0 4 56 3.02 0 1
60 110 2 1 1 0 0 0 1 1107.0 17 259 2.5 0 1
61 110 2 1 1 1 1 1 1 718.0 7 99 7.24 1 1
62 110 2 1 1 1 1 1 1 834.0 3 47 3.05 0 1
63 110 2 1 1 0 0 0 1 748.0 4 59 1.99 0 1
64 110 2 1 1 0 0 0 1 664.0 9 136 3.1 0 1
65 110 2 1 1 1 1 1 1 595.0 28 447 7.79 1 1
66 110 2 1 1 1 0 1 0 923.0 29 456 1.5 0 1
67 110 2 1 1 0 1 0 0 1094.0 3 37 3.08 0 1
68 110 2 1 1 0 0 0 1 799.0 29 451 1.86 0 1
69 110 2 1 1 0 0 0 1 708.0 17 266 2.6 0 1
70 110 2 1 1 1 0 1 0 902.0 30 467 1.95 0 1
71 110 2 1 1 1 1 1 1 1122.0 10 152 1.38 0 1
72 110 2 1 1 0 0 0 1 706.0 7 106 7.66 1 1
73 110 2 1 1 0 1 0 0 1211.0 7 112 7.03 1 1
74 110 2 1 1 1 0 1 0 689.0 29 452 1.8 0 1
75 110 2 1 1 1 1 1 1 689.0 1 3 3.17 0 1
76 110 2 1 1 1 1 1 1 865.0 4 62 2.95 0 1
77 110 2 1 1 0 1 0 0 1324.0 25 398 1.43 0 1
78 110 2 1 1 0 0 0 1 1122.0 24 373 7.32 1 1
79 110 2 1 1 1 1 1 1 849.0 20 308 2.2 0 1
80 110 2 1 1 1 1 1 1 31.0 25 385 1.43 0 1
81 110 2 1 1 1 0 1 0 1568.0 15 238 3.31 0 1
82 110 2 1 1 0 1 0 0 736.0 13 198 2.65 0 1
83 110 2 1 1 1 1 1 1 1746.0 20 318 2.58 0 1
84 110 2 1 1 0 0 0 1 868.0 30 472 2.55 0 1
85 110 2 1 1 1 1 1 1 1411.0 20 314 1.94 0 1
86 110 2 1 1 1 0 1 0 1061.0 17 261 2.14 0 1
87 110 2 1 1 0 1 0 0 690.0 18 285 2.27 0 1
88 110 2 1 1 1 1 1 1 1274.0 25 391 1.73 0 1
89 110 2 1 1 0 0 0 1 641.0 9 140 2.97 0 1
90 110 2 1 1 1 1 1 1 2030.0 18 279 1.97 0 1
91 110 2 1 1 1 1 1 1 1166.0 13 207 3.11 0 1
92 110 2 1 1 1 1 1 1 953.0 4 50 2.73 0 1
93 110 2 1 1 1 1 1 1 937.0 1 9 2.49 0 1
94 110 2 1 1 0 1 0 0 951.0 3 35 3.14 0 1
95 110 2 1 1 1 0 1 0 1027.0 18 287 2.19 0 1
96 110 2 1 1 1 1 1 1 1187.0 18 284 1.92 0 1
97 110 2 1 1 0 0 0 1 721.0 1 8 1.95 0 1
98 110 2 1 1 0 0 0 1 2296.0 17 263 2.59 0 1
99 110 2 1 1 0 0 0 1 1005.0 30 476 2.48 0 1
100 110 2 1 1 1 0 1 0 855.0 10 149 3.02 0 1
1 296 1 0 1 0 0 0 1 2884.0 28 445 7.58 1 1
2 296 1 0 1 1 1 1 1 1330.0 7 112 7.03 1 1
3 296 1 0 1 0 0 0 1 2854.0 15 227 2.67 0 1
4 296 1 0 1 0 0 0 1 1800.0 25 385 1.43 0 1
5 296 1 0 1 0 1 0 0 1157.0 20 314 1.94 0 1
6 296 1 0 1 1 1 1 1 1892.0 3 36 2.98 0 1
7 296 1 0 1 1 1 1 1 1132.0 29 464 1.93 0 1
8 296 1 0 1 0 0 0 1 1555.0 9 141 3.12 0 1
9 296 1 0 1 0 1 0 0 1444.0 2 26 2.76 0 1
10 296 1 0 1 1 1 1 1 958.0 15 230 3.4 0 1
11 296 1 0 1 1 1 1 1 890.0 1 8 1.95 0 1
12 296 1 0 1 1 1 1 1 1093.0 2 18 1.84 0 1
13 296 1 0 1 0 0 0 1 1380.0 29 456 1.5 0 1
14 296 1 0 1 1 1 1 1 1412.0 13 205 3.26 0 1
15 296 1 0 1 0 0 0 1 1328.0 29 459 1.82 0 1
16 296 1 0 1 0 1 0 0 1829.0 7 99 7.24 1 1
17 296 1 0 1 1 1 1 1 1059.0 30 472 2.55 0 1
18 296 1 0 1 0 0 0 1 1259.0 10 149 3.02 0 1
19 296 1 0 1 0 1 0 0 1234.0 7 107 7.11 1 1
20 296 1 0 1 0 1 0 0 858.0 18 287 2.19 0 1
21 296 1 0 1 0 0 0 1 1003.0 24 382 6.86 1 1
22 296 1 0 1 0 0 0 1 905.0 6 86 8.01 1 1
23 296 1 0 1 1 1 1 1 1095.0 4 59 1.99 0 1
24 296 1 0 1 0 1 0 0 1090.0 1 3 3.17 0 1
25 296 1 0 1 1 1 1 1 1056.0 17 263 2.59 0 1
26 296 1 0 1 0 1 0 0 880.0 30 466 2.9 0 1
27 296 1 0 1 1 0 1 0 1177.0 17 259 2.5 0 1
28 296 1 0 1 0 1 0 0 1176.0 2 29 2.68 0 1
29 296 1 0 1 0 1 0 0 867.0 13 202 3.09 0 1
30 296 1 0 1 1 0 1 0 863.0 4 56 3.02 0 1
31 296 1 0 1 1 0 1 0 930.0 15 228 3.15 0 1
32 296 1 0 1 0 1 0 0 786.0 17 269 2.8 0 1
33 296 1 0 1 1 1 1 1 705.0 18 285 2.27 0 1
34 296 1 0 1 1 0 1 0 670.0 1 6 3.17 0 1
35 296 1 0 1 0 1 0 0 707.0 30 471 2.73 0 1
36 296 1 0 1 0 0 0 1 868.0 17 258 2.89 0 1
37 296 1 0 1 1 0 1 0 675.0 10 155 1.73 0 1
38 296 1 0 1 0 0 0 1 1046.0 9 142 3.22 0 1
39 296 1 0 1 1 1 1 1 794.0 3 35 3.14 0 1
40 296 1 0 1 0 0 0 1 700.0 25 400 1.71 0 1
41 296 1 0 1 0 0 0 1 821.0 29 452 1.8 0 1
42 296 1 0 1 1 1 1 1 667.0 29 463 2.0 0 1
43 296 1 0 1 1 0 1 0 765.0 9 136 3.1 0 1
44 296 1 0 1 0 1 0 0 716.0 13 206 3.41 0 1
45 296 1 0 1 0 1 0 0 887.0 3 42 2.84 0 1
46 296 1 0 1 0 0 0 1 700.0 9 129 3.25 0 1
47 296 1 0 1 0 1 0 0 919.0 18 279 1.97 0 1
48 296 1 0 1 0 1 0 0 1087.0 4 50 2.73 0 1
49 296 1 0 1 1 1 1 1 568.0 13 197 2.97 0 1
50 296 1 0 1 1 0 1 0 1216.0 27 420 7.61 1 1
51 296 1 0 1 1 0 1 0 1019.0 15 240 2.57 0 1
52 296 1 0 1 1 1 1 1 674.0 30 476 2.48 0 1
53 296 1 0 1 0 0 0 1 721.0 23 365 6.57 1 1
54 296 1 0 1 1 0 1 0 827.0 18 277 2.23 0 1
55 296 1 0 1 0 1 0 0 860.0 13 207 3.11 0 1
56 296 1 0 1 1 1 1 1 674.0 3 37 3.08 0 1
57 296 1 0 1 1 0 1 0 1184.0 29 451 1.86 0 1
58 296 1 0 1 1 1 1 1 919.0 7 106 7.66 1 1
59 296 1 0 1 0 0 0 1 719.0 8 125 7.28 1 1
60 296 1 0 1 1 1 1 1 1039.0 22 347 6.7 1 1
61 296 1 0 1 1 1 1 1 861.0 25 398 1.43 0 1
62 296 1 0 1 0 1 0 0 973.0 10 154 2.88 0 1
63 296 1 0 1 0 0 0 1 817.0 4 60 2.6 0 1
64 296 1 0 1 1 0 1 0 861.0 25 396 1.85 0 1
65 296 1 0 1 1 1 1 1 987.0 23 362 7.17 1 1
66 296 1 0 1 0 0 0 1 778.0 10 152 1.38 0 1
67 296 1 0 1 0 1 0 0 1168.0 1 4 3.18 0 1
68 296 1 0 1 1 1 1 1 920.0 4 64 2.52 0 1
69 296 1 0 1 1 1 1 1 1516.0 28 433 7.18 1 1
70 296 1 0 1 0 1 0 0 956.0 30 467 1.95 0 1
71 296 1 0 1 0 0 0 1 1150.0 25 391 1.73 0 1
72 296 1 0 1 0 1 0 0 1013.0 1 9 2.49 0 1
73 296 1 0 1 0 1 0 0 599.0 15 226 3.2 0 1
74 296 1 0 1 1 1 1 1 536.0 10 160 2.19 0 1
75 296 1 0 1 0 1 0 0 931.0 17 261 2.14 0 1
76 296 1 0 1 0 1 0 0 773.0 20 308 2.2 0 1
77 296 1 0 1 1 1 1 1 856.0 6 85 7.32 1 1
78 296 1 0 1 0 1 0 0 901.0 18 284 1.92 0 1
79 296 1 0 1 0 1 0 0 771.0 20 318 2.58 0 1
80 296 1 0 1 1 1 1 1 648.0 20 307 1.87 0 1
81 296 1 0 1 0 1 0 0 979.0 4 62 2.95 0 1
82 296 1 0 1 1 1 1 1 713.0 20 315 2.75 0 1
83 296 1 0 1 0 1 0 0 767.0 3 33 2.97 0 1
84 296 1 0 1 0 0 0 1 986.0 2 24 2.31 0 1
85 296 1 0 1 1 1 1 1 1480.0 18 280 2.15 0 1
86 296 1 0 1 1 1 1 1 41385.0 10 158 2.59 0 1
87 296 1 0 1 1 0 1 0 1143.0 1 10 3.15 0 1
88 296 1 0 1 1 1 1 1 877.0 2 25 1.89 0 1
89 296 1 0 1 1 1 1 1 579.0 20 319 2.13 0 1
90 296 1 0 1 1 0 1 0 1049.0 17 266 2.6 0 1
91 296 1 0 1 1 1 1 1 988.0 24 373 7.32 1 1
92 296 1 0 1 1 1 1 1 600.0 13 198 2.65 0 1
93 296 1 0 1 0 0 0 1 1451.0 28 447 7.79 1 1
94 296 1 0 1 1 0 1 0 1457.0 25 397 1.77 0 1
95 296 1 0 1 1 1 1 1 1087.0 9 139 1.74 0 1
96 296 1 0 1 1 1 1 1 830.0 30 465 2.7 0 1
97 296 1 0 1 1 1 1 1 531.0 2 17 1.92 0 1
98 296 1 0 1 0 1 0 0 1791.0 15 238 3.31 0 1
99 296 1 0 1 0 1 0 0 777.0 3 47 3.05 0 1
100 296 1 0 1 1 0 1 0 1285.0 9 140 2.97 0 1
1 114 2 0 1 1 0 1 0 2248.0 29 459 1.82 0 1
2 114 2 0 1 0 0 0 1 1657.0 15 230 3.4 0 1
3 114 2 0 1 0 1 0 0 923.0 15 228 3.15 0 1
4 114 2 0 1 0 0 0 1 5965.0 9 136 3.1 0 1
5 114 2 0 1 0 0 0 1 1405.0 3 37 3.08 0 1
6 114 2 0 1 1 1 1 1 776.0 18 279 1.97 0 1
7 114 2 0 1 0 0 0 1 1409.0 17 266 2.6 0 1
8 114 2 0 1 0 0 0 1 851.0 7 106 7.66 1 1
9 114 2 0 1 0 1 0 0 951.0 25 398 1.43 0 1
10 114 2 0 1 1 1 1 1 2186.0 10 152 1.38 0 1
11 114 2 0 1 1 0 1 0 1592.0 25 400 1.71 0 1
12 114 2 0 1 1 0 1 0 1265.0 2 24 2.31 0 1
13 114 2 0 1 0 1 0 0 1202.0 10 160 2.19 0 1
14 114 2 0 1 0 1 0 0 1964.0 1 8 1.95 0 1
15 114 2 0 1 0 0 0 1 1246.0 13 198 2.65 0 1
16 114 2 0 1 1 1 1 1 934.0 6 86 8.01 1 1
17 114 2 0 1 0 1 0 0 649.0 18 277 2.23 0 1
18 114 2 0 1 0 0 0 1 613.0 24 373 7.32 1 1
19 114 2 0 1 1 1 1 1 745.0 30 471 2.73 0 1
20 114 2 0 1 0 0 0 1 976.0 1 10 3.15 0 1
21 114 2 0 1 0 0 0 1 789.0 4 59 1.99 0 1
22 114 2 0 1 0 1 0 0 800.0 15 240 2.57 0 1
23 114 2 0 1 0 1 0 0 1352.0 2 17 1.92 0 1
24 114 2 0 1 1 1 1 1 700.0 25 385 1.43 0 1
25 114 2 0 1 0 1 0 0 793.0 30 465 2.7 0 1
26 114 2 0 1 1 1 1 1 744.0 28 445 7.58 1 1
27 114 2 0 1 0 0 0 1 966.0 27 420 7.61 1 1
28 114 2 0 1 0 0 0 1 3506.0 17 259 2.5 0 1
29 114 2 0 1 0 0 0 1 1066.0 28 433 7.18 1 1
30 114 2 0 1 1 1 1 1 3530.0 1 9 2.49 0 1
31 114 2 0 1 1 1 1 1 1135.0 8 125 7.28 1 1
32 114 2 0 1 1 1 1 1 915.0 3 42 2.84 0 1
33 114 2 0 1 0 1 0 0 1132.0 13 197 2.97 0 1
34 114 2 0 1 1 1 1 1 830.0 3 33 2.97 0 1
35 114 2 0 1 0 1 0 0 999.0 4 64 2.52 0 1
36 114 2 0 1 1 1 1 1 876.0 18 284 1.92 0 1
37 114 2 0 1 0 1 0 0 677.0 1 6 3.17 0 1
38 114 2 0 1 1 1 1 1 699.0 30 467 1.95 0 1
39 114 2 0 1 1 0 1 0 622.0 1 3 3.17 0 1
40 114 2 0 1 0 1 0 0 904.0 4 56 3.02 0 1
41 114 2 0 1 0 0 0 1 644.0 2 18 1.84 0 1
42 114 2 0 1 0 1 0 0 1084.0 20 319 2.13 0 1
43 114 2 0 1 1 1 1 1 884.0 13 206 3.41 0 1
44 114 2 0 1 1 1 1 1 716.0 17 261 2.14 0 1
45 114 2 0 1 1 1 1 1 932.0 9 142 3.22 0 1
46 114 2 0 1 1 1 1 1 934.0 3 47 3.05 0 1
47 114 2 0 1 0 0 0 1 776.0 7 112 7.03 1 1
48 114 2 0 1 0 1 0 0 961.0 13 205 3.26 0 1
49 114 2 0 1 0 0 0 1 1151.0 6 85 7.32 1 1
50 114 2 0 1 1 1 1 1 743.0 4 50 2.73 0 1
51 114 2 0 1 0 1 0 0 1359.0 3 35 3.14 0 1
52 114 2 0 1 1 1 1 1 763.0 28 447 7.79 1 1
53 114 2 0 1 0 0 0 1 760.0 17 263 2.59 0 1
54 114 2 0 1 1 1 1 1 735.0 4 62 2.95 0 1
55 114 2 0 1 0 1 0 0 912.0 18 285 2.27 0 1
56 114 2 0 1 1 1 1 1 994.0 9 141 3.12 0 1
57 114 2 0 1 1 0 1 0 804.0 4 60 2.6 0 1
58 114 2 0 1 0 0 0 1 781.0 10 158 2.59 0 1
59 114 2 0 1 1 1 1 1 991.0 1 4 3.18 0 1
60 114 2 0 1 1 1 1 1 3579.0 17 269 2.8 0 1
61 114 2 0 1 1 1 1 1 768.0 20 308 2.2 0 1
62 114 2 0 1 1 0 1 0 775.0 23 365 6.57 1 1
63 114 2 0 1 0 1 0 0 717.0 29 451 1.86 0 1
64 114 2 0 1 0 1 0 0 637.0 20 315 2.75 0 1
65 114 2 0 1 0 1 0 0 689.0 18 280 2.15 0 1
66 114 2 0 1 1 1 1 1 614.0 20 314 1.94 0 1
67 114 2 0 1 1 0 1 0 1205.0 30 466 2.9 0 1
68 114 2 0 1 0 1 0 0 901.0 30 476 2.48 0 1
69 114 2 0 1 0 1 0 0 635.0 30 472 2.55 0 1
70 114 2 0 1 1 0 1 0 1007.0 2 26 2.76 0 1
71 114 2 0 1 1 1 1 1 626.0 15 226 3.2 0 1
72 114 2 0 1 0 0 0 1 723.0 2 25 1.89 0 1
73 114 2 0 1 1 1 1 1 1706.0 25 391 1.73 0 1
74 114 2 0 1 1 1 1 1 731.0 15 227 2.67 0 1
75 114 2 0 1 1 1 1 1 887.0 9 129 3.25 0 1
76 114 2 0 1 1 0 1 0 771.0 7 99 7.24 1 1
77 114 2 0 1 0 1 0 0 807.0 9 139 1.74 0 1
78 114 2 0 1 1 1 1 1 788.0 10 149 3.02 0 1
79 114 2 0 1 1 1 1 1 1252.0 29 452 1.8 0 1
80 114 2 0 1 1 0 1 0 760.0 7 107 7.11 1 1
81 114 2 0 1 0 0 0 1 871.0 22 347 6.7 1 1
82 114 2 0 1 1 1 1 1 1239.0 15 238 3.31 0 1
83 114 2 0 1 1 1 1 1 829.0 2 29 2.68 0 1
84 114 2 0 1 1 0 1 0 791.0 13 207 3.11 0 1
85 114 2 0 1 1 0 1 0 1542.0 13 202 3.09 0 1
86 114 2 0 1 1 1 1 1 710.0 17 258 2.89 0 1
87 114 2 0 1 0 1 0 0 827.0 29 463 2.0 0 1
88 114 2 0 1 1 0 1 0 1274.0 24 382 6.86 1 1
89 114 2 0 1 0 0 0 1 1153.0 23 362 7.17 1 1
90 114 2 0 1 0 1 0 0 1343.0 3 36 2.98 0 1
91 114 2 0 1 1 1 1 1 843.0 18 287 2.19 0 1
92 114 2 0 1 1 0 1 0 745.0 10 154 2.88 0 1
93 114 2 0 1 0 1 0 0 606.0 20 307 1.87 0 1
94 114 2 0 1 0 1 0 0 650.0 9 140 2.97 0 1
95 114 2 0 1 0 0 0 1 670.0 29 464 1.93 0 1
96 114 2 0 1 1 1 1 1 664.0 20 318 2.58 0 1
97 114 2 0 1 0 1 0 0 854.0 10 155 1.73 0 1
98 114 2 0 1 0 0 0 1 691.0 25 396 1.85 0 1
99 114 2 0 1 1 1 1 1 1108.0 29 456 1.5 0 1
100 114 2 0 1 0 1 0 0 828.0 25 397 1.77 0 1
1 166 2 0 1 1 1 1 1 5379.0 29 452 1.8 0 1
2 166 2 0 1 0 0 0 1 3706.0 10 160 2.19 0 1
3 166 2 0 1 1 1 1 1 1220.0 4 50 2.73 0 1
4 166 2 0 1 0 1 0 0 712.0 10 155 1.73 0 1
5 166 2 0 1 0 0 0 1 3755.0 15 230 3.4 0 1
6 166 2 0 1 1 1 1 1 942.0 18 279 1.97 0 1
7 166 2 0 1 1 0 1 0 4761.0 25 385 1.43 0 1
8 166 2 0 1 1 0 1 0 1047.0 1 3 3.17 0 1
9 166 2 0 1 0 0 0 1 1333.0 18 280 2.15 0 1
10 166 2 0 1 1 1 1 1 765.0 17 269 2.8 0 1
11 166 2 0 1 1 1 1 1 973.0 20 308 2.2 0 1
12 166 2 0 1 1 1 1 1 2385.0 10 154 2.88 0 1
13 166 2 0 1 1 1 1 1 853.0 30 471 2.73 0 1
14 166 2 0 1 0 0 0 1 1026.0 30 465 2.7 0 1
15 166 2 0 1 1 1 1 1 914.0 9 129 3.25 0 1
16 166 2 0 1 1 0 1 0 1925.0 18 287 2.19 0 1
17 166 2 0 1 1 0 1 0 936.0 25 400 1.71 0 1
18 166 2 0 1 0 0 0 1 837.0 27 420 7.61 1 1
19 166 2 0 1 0 0 0 1 2527.0 10 158 2.59 0 1
20 166 2 0 1 1 1 1 1 1143.0 15 238 3.31 0 1
21 166 2 0 1 1 0 1 0 4847.0 29 459 1.82 0 1
22 166 2 0 1 0 0 0 1 661.0 22 347 6.7 1 1
23 166 2 0 1 0 0 0 1 859.0 9 140 2.97 0 1
24 166 2 0 1 0 0 0 1 807.0 24 373 7.32 1 1
25 166 2 0 1 0 0 0 1 931.0 17 266 2.6 0 1
26 166 2 0 1 1 1 1 1 950.0 28 445 7.58 1 1
27 166 2 0 1 1 0 1 0 1801.0 4 60 2.6 0 1
28 166 2 0 1 0 0 0 1 754.0 23 362 7.17 1 1
29 166 2 0 1 0 0 0 1 973.0 15 228 3.15 0 1
30 166 2 0 1 0 1 0 0 691.0 15 240 2.57 0 1
31 166 2 0 1 1 0 1 0 721.0 24 382 6.86 1 1
32 166 2 0 1 1 1 1 1 1140.0 15 227 2.67 0 1
33 166 2 0 1 1 1 1 1 1039.0 13 207 3.11 0 1
34 166 2 0 1 0 0 0 1 1228.0 20 307 1.87 0 1
35 166 2 0 1 0 1 0 0 858.0 25 396 1.85 0 1
36 166 2 0 1 1 1 1 1 607.0 6 86 8.01 1 1
37 166 2 0 1 0 1 0 0 649.0 17 263 2.59 0 1
38 166 2 0 1 0 0 0 1 803.0 29 463 2.0 0 1
39 166 2 0 1 0 1 0 0 1124.0 9 139 1.74 0 1
40 166 2 0 1 0 1 0 0 571.0 30 476 2.48 0 1
41 166 2 0 1 1 1 1 1 753.0 17 261 2.14 0 1
42 166 2 0 1 0 1 0 0 1497.0 2 25 1.89 0 1
43 166 2 0 1 0 1 0 0 850.0 13 197 2.97 0 1
44 166 2 0 1 0 1 0 0 1264.0 25 397 1.77 0 1
45 166 2 0 1 0 0 0 1 899.0 28 433 7.18 1 1
46 166 2 0 1 1 1 1 1 752.0 28 447 7.79 1 1
47 166 2 0 1 1 1 1 1 790.0 23 365 6.57 1 1
48 166 2 0 1 1 1 1 1 1031.0 3 47 3.05 0 1
49 166 2 0 1 1 1 1 1 801.0 8 125 7.28 1 1
50 166 2 0 1 1 1 1 1 752.0 20 314 1.94 0 1
51 166 2 0 1 0 1 0 0 1811.0 3 37 3.08 0 1
52 166 2 0 1 1 0 1 0 970.0 7 107 7.11 1 1
53 166 2 0 1 1 0 1 0 1170.0 20 318 2.58 0 1
54 166 2 0 1 1 1 1 1 945.0 2 29 2.68 0 1
55 166 2 0 1 1 0 1 0 1248.0 15 226 3.2 0 1
56 166 2 0 1 0 1 0 0 879.0 4 64 2.52 0 1
57 166 2 0 1 0 0 0 1 10312.0 1 6 3.17 0 1
58 166 2 0 1 0 0 0 1 1060.0 9 136 3.1 0 1
59 166 2 0 1 1 1 1 1 1292.0 29 456 1.5 0 1
60 166 2 0 1 1 1 1 1 986.0 3 33 2.97 0 1
61 166 2 0 1 0 0 0 1 1513.0 18 285 2.27 0 1
62 166 2 0 1 1 1 1 1 1413.0 10 152 1.38 0 1
63 166 2 0 1 0 0 0 1 1013.0 30 472 2.55 0 1
64 166 2 0 1 1 1 1 1 1346.0 2 24 2.31 0 1
65 166 2 0 1 1 0 1 0 924.0 17 258 2.89 0 1
66 166 2 0 1 1 1 1 1 1478.0 7 99 7.24 1 1
67 166 2 0 1 0 0 0 1 1870.0 1 10 3.15 0 1
68 166 2 0 1 1 1 1 1 983.0 9 142 3.22 0 1
69 166 2 0 1 0 1 0 0 758.0 2 18 1.84 0 1
70 166 2 0 1 0 1 0 0 1117.0 1 8 1.95 0 1
71 166 2 0 1 1 0 1 0 1887.0 13 206 3.41 0 1
72 166 2 0 1 0 1 0 0 671.0 4 59 1.99 0 1
73 166 2 0 1 0 0 0 1 907.0 7 112 7.03 1 1
74 166 2 0 1 0 1 0 0 831.0 3 35 3.14 0 1
75 166 2 0 1 0 0 0 1 1249.0 29 464 1.93 0 1
76 166 2 0 1 1 0 1 0 783.0 10 149 3.02 0 1
77 166 2 0 1 0 1 0 0 755.0 25 398 1.43 0 1
78 166 2 0 1 1 1 1 1 777.0 2 26 2.76 0 1
79 166 2 0 1 0 1 0 0 2536.0 20 319 2.13 0 1
80 166 2 0 1 0 1 0 0 615.0 3 36 2.98 0 1
81 166 2 0 1 0 1 0 0 625.0 18 277 2.23 0 1
82 166 2 0 1 1 1 1 1 817.0 1 9 2.49 0 1
83 166 2 0 1 0 1 0 0 1267.0 2 17 1.92 0 1
84 166 2 0 1 1 1 1 1 752.0 13 202 3.09 0 1
85 166 2 0 1 0 0 0 1 976.0 20 315 2.75 0 1
86 166 2 0 1 1 1 1 1 1295.0 4 62 2.95 0 1
87 166 2 0 1 1 0 1 0 843.0 30 466 2.9 0 1
88 166 2 0 1 1 0 1 0 1004.0 1 4 3.18 0 1
89 166 2 0 1 0 0 0 1 830.0 17 259 2.5 0 1
90 166 2 0 1 0 0 0 1 1009.0 29 451 1.86 0 1
91 166 2 0 1 0 0 0 1 1156.0 6 85 7.32 1 1
92 166 2 0 1 1 1 1 1 962.0 30 467 1.95 0 1
93 166 2 0 1 1 1 1 1 831.0 25 391 1.73 0 1
94 166 2 0 1 0 0 0 1 1002.0 13 198 2.65 0 1
95 166 2 0 1 1 1 1 1 1021.0 9 141 3.12 0 1
96 166 2 0 1 0 0 0 1 1032.0 7 106 7.66 1 1
97 166 2 0 1 0 1 0 0 1886.0 4 56 3.02 0 1
98 166 2 0 1 0 0 0 1 834.0 13 205 3.26 0 1
99 166 2 0 1 1 0 1 0 909.0 18 284 1.92 0 1
100 166 2 0 1 1 1 1 1 1378.0 3 42 2.84 0 1
1 226 2 0 1 1 1 1 1 2310.0 20 314 1.94 0 1
2 226 2 0 1 0 1 0 0 1579.0 28 433 7.18 1 1
3 226 2 0 1 0 1 0 0 806.0 10 158 2.59 0 1
4 226 2 0 1 1 1 1 1 744.0 10 149 3.02 0 1
5 226 2 0 1 1 0 1 0 1042.0 30 471 2.73 0 1
6 226 2 0 1 0 0 0 1 859.0 23 362 7.17 1 1
7 226 2 0 1 1 1 1 1 645.0 25 391 1.73 0 1
8 226 2 0 1 0 1 0 0 1260.0 2 25 1.89 0 1
9 226 2 0 1 1 0 1 0 1001.0 3 33 2.97 0 1
10 226 2 0 1 1 1 1 1 751.0 29 452 1.8 0 1
11 226 2 0 1 1 0 1 0 1143.0 29 456 1.5 0 1
12 226 2 0 1 0 1 0 0 786.0 9 136 3.1 0 1
13 226 2 0 1 0 1 0 0 583.0 30 465 2.7 0 1
14 226 2 0 1 0 1 0 0 552.0 18 280 2.15 0 1
15 226 2 0 1 1 1 1 1 522.0 13 207 3.11 0 1
16 226 2 0 1 1 1 1 1 1108.0 28 447 7.79 1 1
17 226 2 0 1 1 0 1 0 945.0 2 29 2.68 0 1
18 226 2 0 1 0 1 0 0 1390.0 30 476 2.48 0 1
19 226 2 0 1 0 0 0 1 759.0 20 307 1.87 0 1
20 226 2 0 1 0 0 0 1 1455.0 17 263 2.59 0 1
21 226 2 0 1 0 1 0 0 672.0 3 35 3.14 0 1
22 226 2 0 1 0 0 0 1 520.0 4 59 1.99 0 1
23 226 2 0 1 1 1 1 1 1080.0 10 152 1.38 0 1
24 226 2 0 1 1 0 1 0 906.0 24 382 6.86 1 1
25 226 2 0 1 0 1 0 0 502.0 4 56 3.02 0 1
26 226 2 0 1 1 0 1 0 1070.0 28 445 7.58 1 1
27 226 2 0 1 1 1 1 1 855.0 1 3 3.17 0 1
28 226 2 0 1 1 1 1 1 741.0 3 42 2.84 0 1
29 226 2 0 1 0 1 0 0 788.0 15 228 3.15 0 1
30 226 2 0 1 0 0 0 1 1193.0 9 140 2.97 0 1
31 226 2 0 1 0 1 0 0 3037.0 15 230 3.4 0 1
32 226 2 0 1 1 1 1 1 650.0 13 206 3.41 0 1
33 226 2 0 1 1 0 1 0 633.0 25 400 1.71 0 1
34 226 2 0 1 0 1 0 0 10758.0 17 266 2.6 0 1
35 226 2 0 1 1 1 1 1 840.0 15 226 3.2 0 1
36 226 2 0 1 0 0 0 1 433.0 29 451 1.86 0 1
37 226 2 0 1 1 1 1 1 1644.0 4 50 2.73 0 1
38 226 2 0 1 1 0 1 0 1086.0 8 125 7.28 1 1
39 226 2 0 1 1 1 1 1 3309.0 29 459 1.82 0 1
40 226 2 0 1 1 1 1 1 810.0 2 24 2.31 0 1
41 226 2 0 1 1 1 1 1 654.0 20 308 2.2 0 1
42 226 2 0 1 0 0 0 1 681.0 4 64 2.52 0 1
43 226 2 0 1 1 1 1 1 1304.0 10 154 2.88 0 1
44 226 2 0 1 1 1 1 1 1176.0 9 129 3.25 0 1
45 226 2 0 1 1 0 1 0 673.0 9 142 3.22 0 1
46 226 2 0 1 0 1 0 0 695.0 20 319 2.13 0 1
47 226 2 0 1 0 1 0 0 642.0 25 398 1.43 0 1
48 226 2 0 1 0 0 0 1 975.0 22 347 6.7 1 1
49 226 2 0 1 0 1 0 0 672.0 15 240 2.57 0 1
50 226 2 0 1 0 1 0 0 612.0 3 37 3.08 0 1
51 226 2 0 1 1 1 1 1 735.0 20 318 2.58 0 1
52 226 2 0 1 0 0 0 1 701.0 13 205 3.26 0 1
53 226 2 0 1 1 1 1 1 841.0 18 284 1.92 0 1
54 226 2 0 1 0 1 0 0 1038.0 7 112 7.03 1 1
55 226 2 0 1 1 1 1 1 14936.0 15 227 2.67 0 1
56 226 2 0 1 0 1 0 0 608.0 2 17 1.92 0 1
57 226 2 0 1 0 1 0 0 488.0 3 36 2.98 0 1
58 226 2 0 1 0 0 0 1 5044.0 18 285 2.27 0 1
59 226 2 0 1 1 0 1 0 869.0 25 385 1.43 0 1
60 226 2 0 1 0 1 0 0 306.0 2 18 1.84 0 1
61 226 2 0 1 0 0 0 1 1088.0 10 155 1.73 0 1
62 226 2 0 1 0 0 0 1 539.0 30 472 2.55 0 1
63 226 2 0 1 0 1 0 0 615.0 18 277 2.23 0 1
64 226 2 0 1 1 1 1 1 343.0 6 86 8.01 1 1
65 226 2 0 1 0 1 0 0 494.0 20 315 2.75 0 1
66 226 2 0 1 0 1 0 0 259.0 1 8 1.95 0 1
67 226 2 0 1 1 1 1 1 208.0 30 467 1.95 0 1
68 226 2 0 1 1 1 1 1 219.0 1 4 3.18 0 1
69 226 2 0 1 1 0 1 0 424.0 23 365 6.57 1 1
70 226 2 0 1 1 1 1 1 268.0 18 287 2.19 0 1
71 226 2 0 1 1 0 1 0 291.0 4 60 2.6 0 1
72 226 2 0 1 0 1 0 0 248.0 25 397 1.77 0 1
73 226 2 0 1 1 1 1 1 412.0 15 238 3.31 0 1
74 226 2 0 1 1 1 1 1 29983.0 4 62 2.95 0 1
75 226 2 0 1 1 0 1 0 1019.0 13 202 3.09 0 1
76 226 2 0 1 0 0 0 1 11837.0 25 396 1.85 0 1
77 226 2 0 1 0 1 0 0 707.0 13 197 2.97 0 1
78 226 2 0 1 1 0 1 0 361.0 9 141 3.12 0 1
79 226 2 0 1 1 1 1 1 217.0 7 107 7.11 1 1
80 226 2 0 1 1 1 1 1 269.0 17 261 2.14 0 1
81 226 2 0 1 0 0 0 1 324.0 1 6 3.17 0 1
82 226 2 0 1 1 1 1 1 292.0 1 9 2.49 0 1
83 226 2 0 1 0 0 0 1 297.0 7 106 7.66 1 1
84 226 2 0 1 1 1 1 1 309.0 17 269 2.8 0 1
85 226 2 0 1 1 1 1 1 298.0 30 466 2.9 0 1
86 226 2 0 1 0 1 0 0 601.0 1 10 3.15 0 1
87 226 2 0 1 0 0 0 1 385.0 13 198 2.65 0 1
88 226 2 0 1 0 1 0 0 348.0 6 85 7.32 1 1
89 226 2 0 1 0 1 0 0 600.0 29 463 2.0 0 1
90 226 2 0 1 1 0 1 0 562.0 2 26 2.76 0 1
91 226 2 0 1 0 1 0 0 294.0 24 373 7.32 1 1
92 226 2 0 1 0 0 0 1 326.0 17 259 2.5 0 1
93 226 2 0 1 0 1 0 0 960.0 9 139 1.74 0 1
94 226 2 0 1 0 1 0 0 481.0 10 160 2.19 0 1
95 226 2 0 1 0 1 0 0 280.0 29 464 1.93 0 1
96 226 2 0 1 1 1 1 1 447.0 17 258 2.89 0 1
97 226 2 0 1 0 1 0 0 439.0 27 420 7.61 1 1
98 226 2 0 1 1 1 1 1 518.0 3 47 3.05 0 1
99 226 2 0 1 1 0 1 0 271.0 7 99 7.24 1 1
100 226 2 0 1 1 1 1 1 277.0 18 279 1.97 0 1
1 52 2 1 1 0 1 0 0 8291.0 29 464 1.93 0 1
2 52 2 1 1 1 1 1 1 2591.0 10 154 2.88 0 1
3 52 2 1 1 1 1 1 1 1297.0 29 459 1.82 0 1
4 52 2 1 1 1 1 1 1 1555.0 30 467 1.95 0 1
5 52 2 1 1 1 1 1 1 1234.0 9 141 3.12 0 1
6 52 2 1 1 0 0 0 1 1300.0 9 136 3.1 0 1
7 52 2 1 1 1 1 1 1 870.0 28 445 7.58 1 1
8 52 2 1 1 1 1 1 1 1167.0 1 9 2.49 0 1
9 52 2 1 1 0 0 0 1 1480.0 10 160 2.19 0 1
10 52 2 1 1 0 0 0 1 1121.0 18 280 2.15 0 1
11 52 2 1 1 1 1 1 1 1093.0 25 400 1.71 0 1
12 52 2 1 1 1 1 1 1 1190.0 7 107 7.11 1 1
13 52 2 1 1 1 1 1 1 1009.0 29 452 1.8 0 1
14 52 2 1 1 1 1 1 1 867.0 15 226 3.2 0 1
15 52 2 1 1 1 1 1 1 738.0 6 86 8.01 1 1
16 52 2 1 1 0 1 0 0 867.0 4 64 2.52 0 1
17 52 2 1 1 0 0 0 1 1275.0 17 266 2.6 0 1
18 52 2 1 1 1 0 1 0 894.0 30 466 2.9 0 1
19 52 2 1 1 0 1 0 0 1224.0 10 155 1.73 0 1
20 52 2 1 1 1 1 1 1 1612.0 1 3 3.17 0 1
21 52 2 1 1 0 0 0 1 949.0 17 259 2.5 0 1
22 52 2 1 1 1 1 1 1 1244.0 25 391 1.73 0 1
23 52 2 1 1 0 0 0 1 897.0 20 307 1.87 0 1
24 52 2 1 1 0 0 0 1 1006.0 20 319 2.13 0 1
25 52 2 1 1 0 1 0 0 771.0 25 397 1.77 0 1
26 52 2 1 1 0 1 0 0 1722.0 3 37 3.08 0 1
27 52 2 1 1 0 1 0 0 762.0 25 396 1.85 0 1
28 52 2 1 1 0 0 0 1 893.0 18 285 2.27 0 1
29 52 2 1 1 1 0 1 0 860.0 7 99 7.24 1 1
30 52 2 1 1 1 1 1 1 765.0 17 269 2.8 0 1
31 52 2 1 1 1 0 1 0 858.0 18 284 1.92 0 1
32 52 2 1 1 0 1 0 0 831.0 27 420 7.61 1 1
33 52 2 1 1 1 1 1 1 1214.0 29 456 1.5 0 1
34 52 2 1 1 1 1 1 1 825.0 20 308 2.2 0 1
35 52 2 1 1 0 1 0 0 1130.0 2 17 1.92 0 1
36 52 2 1 1 1 1 1 1 742.0 2 24 2.31 0 1
37 52 2 1 1 1 1 1 1 1087.0 20 314 1.94 0 1
38 52 2 1 1 0 0 0 1 1690.0 10 158 2.59 0 1
39 52 2 1 1 1 1 1 1 926.0 18 279 1.97 0 1
40 52 2 1 1 1 0 1 0 865.0 10 149 3.02 0 1
41 52 2 1 1 1 1 1 1 1091.0 4 50 2.73 0 1
42 52 2 1 1 1 1 1 1 1091.0 18 287 2.19 0 1
43 52 2 1 1 0 1 0 0 1777.0 29 463 2.0 0 1
44 52 2 1 1 0 0 0 1 777.0 20 315 2.75 0 1
45 52 2 1 1 0 1 0 0 701.0 2 25 1.89 0 1
46 52 2 1 1 0 0 0 1 966.0 6 85 7.32 1 1
47 52 2 1 1 0 0 0 1 773.0 9 139 1.74 0 1
48 52 2 1 1 1 1 1 1 1317.0 2 26 2.76 0 1
49 52 2 1 1 1 1 1 1 877.0 3 33 2.97 0 1
50 52 2 1 1 0 0 0 1 902.0 15 228 3.15 0 1
51 52 2 1 1 1 1 1 1 1394.0 17 258 2.89 0 1
52 52 2 1 1 1 1 1 1 1047.0 13 207 3.11 0 1
53 52 2 1 1 0 0 0 1 800.0 28 433 7.18 1 1
54 52 2 1 1 1 0 1 0 961.0 20 318 2.58 0 1
55 52 2 1 1 0 1 0 0 1597.0 30 476 2.48 0 1
56 52 2 1 1 0 0 0 1 1282.0 1 6 3.17 0 1
57 52 2 1 1 0 0 0 1 1503.0 29 451 1.86 0 1
58 52 2 1 1 0 1 0 0 919.0 3 35 3.14 0 1
59 52 2 1 1 1 0 1 0 1171.0 15 227 2.67 0 1
60 52 2 1 1 1 1 1 1 886.0 13 202 3.09 0 1
61 52 2 1 1 1 1 1 1 780.0 17 261 2.14 0 1
62 52 2 1 1 1 1 1 1 1244.0 3 47 3.05 0 1
63 52 2 1 1 0 1 0 0 710.0 3 36 2.98 0 1
64 52 2 1 1 0 0 0 1 690.0 7 106 7.66 1 1
65 52 2 1 1 0 0 0 1 757.0 24 373 7.32 1 1
66 52 2 1 1 1 1 1 1 976.0 3 42 2.84 0 1
67 52 2 1 1 0 1 0 0 796.0 15 230 3.4 0 1
68 52 2 1 1 0 0 0 1 803.0 13 198 2.65 0 1
69 52 2 1 1 0 1 0 0 2282.0 4 59 1.99 0 1
70 52 2 1 1 1 1 1 1 872.0 13 206 3.41 0 1
71 52 2 1 1 0 0 0 1 689.0 23 362 7.17 1 1
72 52 2 1 1 1 0 1 0 812.0 30 471 2.73 0 1
73 52 2 1 1 0 0 0 1 742.0 22 347 6.7 1 1
74 52 2 1 1 0 1 0 0 852.0 18 277 2.23 0 1
75 52 2 1 1 1 1 1 1 740.0 28 447 7.79 1 1
76 52 2 1 1 1 1 1 1 778.0 23 365 6.57 1 1
77 52 2 1 1 0 1 0 0 940.0 4 56 3.02 0 1
78 52 2 1 1 1 0 1 0 1520.0 1 4 3.18 0 1
79 52 2 1 1 1 1 1 1 640.0 25 385 1.43 0 1
80 52 2 1 1 1 0 1 0 735.0 8 125 7.28 1 1
81 52 2 1 1 1 1 1 1 947.0 15 238 3.31 0 1
82 52 2 1 1 0 0 0 1 791.0 9 140 2.97 0 1
83 52 2 1 1 1 1 1 1 1500.0 10 152 1.38 0 1
84 52 2 1 1 1 1 1 1 1067.0 4 60 2.6 0 1
85 52 2 1 1 0 1 0 0 910.0 2 18 1.84 0 1
86 52 2 1 1 0 1 0 0 1881.0 13 205 3.26 0 1
87 52 2 1 1 0 1 0 0 695.0 1 10 3.15 0 1
88 52 2 1 1 1 1 1 1 839.0 2 29 2.68 0 1
89 52 2 1 1 0 0 0 1 1612.0 15 240 2.57 0 1
90 52 2 1 1 0 1 0 0 881.0 25 398 1.43 0 1
91 52 2 1 1 0 0 0 1 701.0 30 472 2.55 0 1
92 52 2 1 1 0 0 0 1 999.0 30 465 2.7 0 1
93 52 2 1 1 1 1 1 1 1349.0 4 62 2.95 0 1
94 52 2 1 1 0 1 0 0 695.0 1 8 1.95 0 1
95 52 2 1 1 1 1 1 1 765.0 9 142 3.22 0 1
96 52 2 1 1 1 0 1 0 820.0 9 129 3.25 0 1
97 52 2 1 1 1 0 1 0 889.0 24 382 6.86 1 1
98 52 2 1 1 0 0 0 1 758.0 13 197 2.97 0 1
99 52 2 1 1 0 1 0 0 1110.0 17 263 2.59 0 1
100 52 2 1 1 0 0 0 1 877.0 7 112 7.03 1 1
1 133 2 0 1 0 1 0 0 4143.0 9 140 2.97 0 0
2 133 2 0 1 1 1 1 1 2122.0 13 207 3.11 0 0
3 133 2 0 1 1 0 1 0 1676.0 13 206 3.41 0 0
4 133 2 0 1 1 0 1 0 1114.0 10 154 2.88 0 0
5 133 2 0 1 1 0 1 0 1231.0 13 202 3.09 0 0
6 133 2 0 1 1 0 1 0 1630.0 10 149 3.02 0 0
7 133 2 0 1 1 1 1 1 682.0 4 50 2.73 0 0
8 133 2 0 1 0 1 0 0 1076.0 18 285 2.27 0 0
9 133 2 0 1 0 0 0 1 1356.0 20 307 1.87 0 0
10 133 2 0 1 0 0 0 1 842.0 27 420 7.61 1 0
11 133 2 0 1 1 0 1 0 883.0 29 459 1.82 0 0
12 133 2 0 1 0 0 0 1 774.0 10 158 2.59 0 0
13 133 2 0 1 1 1 1 1 1145.0 17 258 2.89 0 0
14 133 2 0 1 1 0 1 0 1158.0 20 314 1.94 0 0
15 133 2 0 1 1 0 1 0 746.0 24 382 6.86 1 0
16 133 2 0 1 1 1 1 1 768.0 25 385 1.43 0 0
17 133 2 0 1 1 1 1 1 626.0 25 391 1.73 0 0
18 133 2 0 1 1 1 1 1 625.0 15 226 3.2 0 0
19 133 2 0 1 1 1 1 1 672.0 10 152 1.38 0 0
20 133 2 0 1 1 1 1 1 725.0 4 60 2.6 0 0
21 133 2 0 1 1 0 1 0 957.0 3 42 2.84 0 0
22 133 2 0 1 1 0 1 0 636.0 23 365 6.57 1 0
23 133 2 0 1 1 1 1 1 593.0 9 129 3.25 0 0
24 133 2 0 1 0 1 0 0 474.0 24 373 7.32 1 0
25 133 2 0 1 1 0 1 0 441.0 18 284 1.92 0 0
26 133 2 0 1 0 1 0 0 768.0 30 476 2.48 0 0
27 133 2 0 1 1 1 1 1 880.0 15 227 2.67 0 0
28 133 2 0 1 0 0 0 1 599.0 6 85 7.32 1 0
29 133 2 0 1 1 1 1 1 873.0 3 47 3.05 0 0
30 133 2 0 1 1 1 1 1 707.0 17 269 2.8 0 0
31 133 2 0 1 0 1 0 0 786.0 25 396 1.85 0 0
32 133 2 0 1 1 1 1 1 825.0 18 287 2.19 0 0
33 133 2 0 1 0 1 0 0 797.0 25 398 1.43 0 0
34 133 2 0 1 1 0 1 0 595.0 2 24 2.31 0 0
35 133 2 0 1 0 1 0 0 777.0 30 465 2.7 0 0
36 133 2 0 1 0 0 0 1 504.0 20 319 2.13 0 0
37 133 2 0 1 1 1 1 1 1533.0 30 471 2.73 0 0
38 133 2 0 1 1 1 1 1 632.0 18 279 1.97 0 0
39 133 2 0 1 1 1 1 1 568.0 1 9 2.49 0 0
40 133 2 0 1 1 0 1 0 1262.0 28 445 7.58 1 0
41 133 2 0 1 0 1 0 0 637.0 17 263 2.59 0 0
42 133 2 0 1 1 0 1 0 683.0 30 466 2.9 0 0
43 133 2 0 1 0 1 0 0 512.0 9 139 1.74 0 0
44 133 2 0 1 0 1 0 0 533.0 18 277 2.23 0 0
45 133 2 0 1 0 1 0 0 358.0 10 155 1.73 0 0
46 133 2 0 1 0 0 0 1 333.0 7 112 7.03 1 0
47 133 2 0 1 0 1 0 0 727.0 4 56 3.02 0 0
48 133 2 0 1 0 0 0 1 661.0 13 205 3.26 0 0
49 133 2 0 1 1 0 1 0 538.0 7 107 7.11 1 0
50 133 2 0 1 0 1 0 0 568.0 3 36 2.98 0 0
51 133 2 0 1 1 0 1 0 920.0 2 29 2.68 0 0
52 133 2 0 1 0 1 0 0 541.0 10 160 2.19 0 0
53 133 2 0 1 1 1 1 1 1182.0 8 125 7.28 1 0
54 133 2 0 1 0 1 0 0 564.0 22 347 6.7 1 0
55 133 2 0 1 0 0 0 1 755.0 18 280 2.15 0 0
56 133 2 0 1 0 1 0 0 843.0 29 464 1.93 0 0
57 133 2 0 1 0 0 0 1 937.0 3 37 3.08 0 0
58 133 2 0 1 0 0 0 1 496.0 15 240 2.57 0 0
59 133 2 0 1 1 0 1 0 812.0 29 452 1.8 0 0
60 133 2 0 1 1 1 1 1 762.0 7 99 7.24 1 0
61 133 2 0 1 0 1 0 0 514.0 1 8 1.95 0 0
62 133 2 0 1 0 0 0 1 548.0 25 397 1.77 0 0
63 133 2 0 1 0 0 0 1 463.0 23 362 7.17 1 0
64 133 2 0 1 0 1 0 0 686.0 3 35 3.14 0 0
65 133 2 0 1 1 0 1 0 806.0 9 142 3.22 0 0
66 133 2 0 1 1 1 1 1 518.0 20 308 2.2 0 0
67 133 2 0 1 0 1 0 0 581.0 2 18 1.84 0 0
68 133 2 0 1 1 0 1 0 543.0 9 141 3.12 0 0
69 133 2 0 1 1 1 1 1 305.0 30 467 1.95 0 0
70 133 2 0 1 1 0 1 0 603.0 4 62 2.95 0 0
71 133 2 0 1 0 1 0 0 449.0 2 17 1.92 0 0
72 133 2 0 1 1 0 1 0 726.0 28 447 7.79 1 0
73 133 2 0 1 0 1 0 0 698.0 7 106 7.66 1 0
74 133 2 0 1 0 0 0 1 463.0 17 259 2.5 0 0
75 133 2 0 1 1 0 1 0 365.0 15 238 3.31 0 0
76 133 2 0 1 1 1 1 1 359.0 2 26 2.76 0 0
77 133 2 0 1 0 1 0 0 321.0 9 136 3.1 0 0
78 133 2 0 1 1 1 1 1 325.0 1 4 3.18 0 0
79 133 2 0 1 0 1 0 0 305.0 1 6 3.17 0 0
80 133 2 0 1 1 1 1 1 473.0 20 318 2.58 0 0
81 133 2 0 1 1 1 1 1 534.0 1 3 3.17 0 0
82 133 2 0 1 0 1 0 0 326.0 30 472 2.55 0 0
83 133 2 0 1 0 0 0 1 255.0 13 198 2.65 0 0
84 133 2 0 1 0 0 0 1 643.0 29 463 2.0 0 0
85 133 2 0 1 0 1 0 0 773.0 2 25 1.89 0 0
86 133 2 0 1 0 0 0 1 348.0 20 315 2.75 0 0
87 133 2 0 1 0 0 0 1 387.0 28 433 7.18 1 0
88 133 2 0 1 1 0 1 0 333.0 29 456 1.5 0 0
89 133 2 0 1 1 1 1 1 294.0 17 261 2.14 0 0
90 133 2 0 1 0 1 0 0 367.0 29 451 1.86 0 0
91 133 2 0 1 0 0 0 1 19.0 4 59 1.99 0 0
92 133 2 0 1 0 1 0 0 116.0 15 228 3.15 0 0
93 133 2 0 1 1 0 1 0 497.0 25 400 1.71 0 0
94 133 2 0 1 0 1 0 0 648.0 4 64 2.52 0 0
95 133 2 0 1 1 0 1 0 464.0 6 86 8.01 1 0
96 133 2 0 1 0 1 0 0 490.0 15 230 3.4 0 0
97 133 2 0 1 0 1 0 0 266.0 1 10 3.15 0 0
98 133 2 0 1 0 1 0 0 291.0 17 266 2.6 0 0
99 133 2 0 1 1 0 1 0 186.0 3 33 2.97 0 0
100 133 2 0 1 0 1 0 0 285.0 13 197 2.97 0 0
1 267 2 1 1 1 1 1 1 2223.0 13 202 3.09 0 1
2 267 2 1 1 0 0 0 1 4908.0 18 280 2.15 0 1
3 267 2 1 1 1 1 1 1 1243.0 25 391 1.73 0 1
4 267 2 1 1 0 0 0 1 4117.0 9 139 1.74 0 1
5 267 2 1 1 0 0 0 1 1585.0 18 277 2.23 0 1
6 267 2 1 1 0 1 0 0 1070.0 1 8 1.95 0 1
7 267 2 1 1 1 1 1 1 1924.0 3 47 3.05 0 1
8 267 2 1 1 0 0 0 1 2701.0 25 398 1.43 0 1
9 267 2 1 1 1 1 1 1 1337.0 20 308 2.2 0 1
10 267 2 1 1 0 0 0 1 1251.0 2 25 1.89 0 1
11 267 2 1 1 1 0 1 0 1640.0 29 452 1.8 0 1
12 267 2 1 1 0 1 0 0 1366.0 13 198 2.65 0 1
13 267 2 1 1 1 1 1 1 1170.0 28 447 7.79 1 1
14 267 2 1 1 0 0 0 1 1214.0 29 464 1.93 0 1
15 267 2 1 1 1 1 1 1 1441.0 3 33 2.97 0 1
16 267 2 1 1 0 0 0 1 1340.0 17 263 2.59 0 1
17 267 2 1 1 0 0 0 1 1423.0 15 230 3.4 0 1
18 267 2 1 1 1 1 1 1 2126.0 1 4 3.18 0 1
19 267 2 1 1 1 0 1 0 1164.0 30 467 1.95 0 1
20 267 2 1 1 1 1 1 1 2403.0 18 284 1.92 0 1
21 267 2 1 1 1 0 1 0 2786.0 30 466 2.9 0 1
22 267 2 1 1 0 0 0 1 1141.0 15 228 3.15 0 1
23 267 2 1 1 1 0 1 0 882.0 15 226 3.2 0 1
24 267 2 1 1 1 1 1 1 3858.0 4 60 2.6 0 1
25 267 2 1 1 0 0 0 1 4802.0 18 285 2.27 0 1
26 267 2 1 1 1 0 1 0 2409.0 25 400 1.71 0 1
27 267 2 1 1 0 1 0 0 1329.0 20 319 2.13 0 1
28 267 2 1 1 0 1 0 0 2703.0 2 18 1.84 0 1
29 267 2 1 1 0 0 0 1 955.0 22 347 6.7 1 1
30 267 2 1 1 1 1 1 1 3777.0 17 261 2.14 0 1
31 267 2 1 1 1 0 1 0 2220.0 20 314 1.94 0 1
32 267 2 1 1 1 1 1 1 1382.0 28 445 7.58 1 1
33 267 2 1 1 1 0 1 0 1305.0 15 238 3.31 0 1
34 267 2 1 1 1 1 1 1 1018.0 23 365 6.57 1 1
35 267 2 1 1 0 0 0 1 2418.0 29 451 1.86 0 1
36 267 2 1 1 0 0 0 1 1418.0 10 155 1.73 0 1
37 267 2 1 1 0 1 0 0 1726.0 25 396 1.85 0 1
38 267 2 1 1 0 1 0 0 2370.0 13 197 2.97 0 1
39 267 2 1 1 1 0 1 0 918.0 10 152 1.38 0 1
40 267 2 1 1 1 1 1 1 5874.0 10 154 2.88 0 1
41 267 2 1 1 1 0 1 0 4719.0 1 3 3.17 0 1
42 267 2 1 1 1 0 1 0 993.0 4 50 2.73 0 1
43 267 2 1 1 1 0 1 0 7297.0 18 287 2.19 0 1
44 267 2 1 1 0 1 0 0 1689.0 3 35 3.14 0 1
45 267 2 1 1 0 1 0 0 5112.0 3 37 3.08 0 1
46 267 2 1 1 1 0 1 0 1312.0 3 42 2.84 0 1
47 267 2 1 1 1 0 1 0 1779.0 25 385 1.43 0 1
48 267 2 1 1 0 1 0 0 1062.0 20 315 2.75 0 1
49 267 2 1 1 1 0 1 0 2983.0 2 26 2.76 0 1
50 267 2 1 1 0 0 0 1 3033.0 4 64 2.52 0 1
51 267 2 1 1 0 1 0 0 1520.0 3 36 2.98 0 1
52 267 2 1 1 1 1 1 1 980.0 2 24 2.31 0 1
53 267 2 1 1 0 0 0 1 3887.0 13 205 3.26 0 1
54 267 2 1 1 0 0 0 1 2386.0 10 158 2.59 0 1
55 267 2 1 1 0 0 0 1 2117.0 27 420 7.61 1 1
56 267 2 1 1 0 1 0 0 3995.0 15 240 2.57 0 1
57 267 2 1 1 0 0 0 1 3282.0 1 6 3.17 0 1
58 267 2 1 1 1 1 1 1 1600.0 2 29 2.68 0 1
59 267 2 1 1 1 0 1 0 2920.0 10 149 3.02 0 1
60 267 2 1 1 0 1 0 0 1640.0 17 259 2.5 0 1
61 267 2 1 1 1 1 1 1 1235.0 7 107 7.11 1 1
62 267 2 1 1 0 1 0 0 5001.0 4 59 1.99 0 1
63 267 2 1 1 0 0 0 1 1458.0 25 397 1.77 0 1
64 267 2 1 1 1 1 1 1 956.0 8 125 7.28 1 1
65 267 2 1 1 1 1 1 1 948.0 20 318 2.58 0 1
66 267 2 1 1 0 1 0 0 2592.0 1 10 3.15 0 1
67 267 2 1 1 0 0 0 1 1096.0 7 106 7.66 1 1
68 267 2 1 1 1 1 1 1 983.0 7 99 7.24 1 1
69 267 2 1 1 1 1 1 1 1021.0 9 142 3.22 0 1
70 267 2 1 1 0 1 0 0 2983.0 30 476 2.48 0 1
71 267 2 1 1 0 0 0 1 1054.0 9 136 3.1 0 1
72 267 2 1 1 0 1 0 0 1050.0 2 17 1.92 0 1
73 267 2 1 1 1 1 1 1 951.0 17 269 2.8 0 1
74 267 2 1 1 1 1 1 1 1226.0 29 456 1.5 0 1
75 267 2 1 1 1 0 1 0 917.0 17 258 2.89 0 1
76 267 2 1 1 1 0 1 0 2686.0 4 62 2.95 0 1
77 267 2 1 1 0 0 0 1 1274.0 28 433 7.18 1 1
78 267 2 1 1 0 0 0 1 1399.0 4 56 3.02 0 1
79 267 2 1 1 1 1 1 1 1649.0 1 9 2.49 0 1
80 267 2 1 1 0 1 0 0 1555.0 20 307 1.87 0 1
81 267 2 1 1 1 0 1 0 1041.0 29 459 1.82 0 1
82 267 2 1 1 1 1 1 1 1558.0 9 141 3.12 0 1
83 267 2 1 1 1 1 1 1 1145.0 13 207 3.11 0 1
84 267 2 1 1 1 1 1 1 818.0 6 86 8.01 1 1
85 267 2 1 1 1 1 1 1 1421.0 9 129 3.25 0 1
86 267 2 1 1 0 0 0 1 1695.0 30 472 2.55 0 1
87 267 2 1 1 0 1 0 0 3873.0 30 465 2.7 0 1
88 267 2 1 1 0 1 0 0 1780.0 17 266 2.6 0 1
89 267 2 1 1 0 1 0 0 2264.0 10 160 2.19 0 1
90 267 2 1 1 1 1 1 1 902.0 24 382 6.86 1 1
91 267 2 1 1 0 0 0 1 1324.0 6 85 7.32 1 1
92 267 2 1 1 1 0 1 0 1002.0 18 279 1.97 0 1
93 267 2 1 1 1 0 1 0 1194.0 15 227 2.67 0 1
94 267 2 1 1 0 0 0 1 1782.0 23 362 7.17 1 1
95 267 2 1 1 1 1 1 1 1071.0 13 206 3.41 0 1
96 267 2 1 1 0 0 0 1 1380.0 24 373 7.32 1 1
97 267 2 1 1 1 1 1 1 2549.0 30 471 2.73 0 1
98 267 2 1 1 0 0 0 1 2241.0 7 112 7.03 1 1
99 267 2 1 1 0 0 0 1 2248.0 9 140 2.97 0 1
100 267 2 1 1 0 0 0 1 3931.0 29 463 2.0 0 1
1 128 2 0 1 0 1 0 0 3684.0 10 160 2.19 0 1
2 128 2 0 1 1 0 1 0 3550.0 28 447 7.79 1 1
3 128 2 0 1 0 1 0 0 1739.0 1 6 3.17 0 1
4 128 2 0 1 0 0 0 1 2106.0 7 112 7.03 1 1
5 128 2 0 1 1 1 1 1 1923.0 4 60 2.6 0 1
6 128 2 0 1 0 0 0 1 2378.0 28 433 7.18 1 1
7 128 2 0 1 0 0 0 1 1381.0 29 464 1.93 0 1
8 128 2 0 1 0 1 0 0 1487.0 29 463 2.0 0 1
9 128 2 0 1 1 0 1 0 979.0 18 284 1.92 0 1
10 128 2 0 1 1 1 1 1 1524.0 30 466 2.9 0 1
11 128 2 0 1 1 0 1 0 1108.0 28 445 7.58 1 1
12 128 2 0 1 1 0 1 0 1530.0 30 471 2.73 0 1
13 128 2 0 1 1 1 1 1 1541.0 20 308 2.2 0 1
14 128 2 0 1 1 1 1 1 1170.0 10 149 3.02 0 1
15 128 2 0 1 1 1 1 1 884.0 10 152 1.38 0 1
16 128 2 0 1 0 0 0 1 873.0 18 285 2.27 0 1
17 128 2 0 1 0 0 0 1 1204.0 27 420 7.61 1 1
18 128 2 0 1 1 1 1 1 898.0 6 86 8.01 1 1
19 128 2 0 1 0 1 0 0 929.0 2 17 1.92 0 1
20 128 2 0 1 1 1 1 1 823.0 25 391 1.73 0 1
21 128 2 0 1 0 0 0 1 1256.0 2 18 1.84 0 1
22 128 2 0 1 0 0 0 1 1298.0 30 476 2.48 0 1
23 128 2 0 1 0 1 0 0 871.0 13 198 2.65 0 1
24 128 2 0 1 1 1 1 1 934.0 8 125 7.28 1 1
25 128 2 0 1 0 0 0 1 1017.0 7 106 7.66 1 1
26 128 2 0 1 1 1 1 1 1081.0 3 47 3.05 0 1
27 128 2 0 1 1 1 1 1 1766.0 7 99 7.24 1 1
28 128 2 0 1 0 0 0 1 845.0 6 85 7.32 1 1
29 128 2 0 1 0 1 0 0 2552.0 15 230 3.4 0 1
30 128 2 0 1 1 1 1 1 855.0 15 227 2.67 0 1
31 128 2 0 1 1 1 1 1 1276.0 25 385 1.43 0 1
32 128 2 0 1 0 1 0 0 1176.0 20 315 2.75 0 1
33 128 2 0 1 1 1 1 1 1220.0 1 3 3.17 0 1
34 128 2 0 1 1 1 1 1 1010.0 3 42 2.84 0 1
35 128 2 0 1 1 1 1 1 1380.0 25 400 1.71 0 1
36 128 2 0 1 1 1 1 1 739.0 24 382 6.86 1 1
37 128 2 0 1 0 0 0 1 834.0 17 263 2.59 0 1
38 128 2 0 1 0 0 0 1 893.0 10 158 2.59 0 1
39 128 2 0 1 1 0 1 0 987.0 29 459 1.82 0 1
40 128 2 0 1 1 1 1 1 1194.0 2 26 2.76 0 1
41 128 2 0 1 0 0 0 1 1210.0 10 155 1.73 0 1
42 128 2 0 1 0 1 0 0 748.0 13 205 3.26 0 1
43 128 2 0 1 0 1 0 0 631.0 3 36 2.98 0 1
44 128 2 0 1 0 1 0 0 623.0 30 472 2.55 0 1
45 128 2 0 1 1 1 1 1 702.0 17 258 2.89 0 1
46 128 2 0 1 1 0 1 0 941.0 29 456 1.5 0 1
47 128 2 0 1 1 1 1 1 644.0 13 202 3.09 0 1
48 128 2 0 1 0 0 0 1 956.0 18 280 2.15 0 1
49 128 2 0 1 1 0 1 0 1023.0 18 287 2.19 0 1
50 128 2 0 1 1 1 1 1 668.0 13 206 3.41 0 1
51 128 2 0 1 0 1 0 0 892.0 4 56 3.02 0 1
52 128 2 0 1 0 0 0 1 734.0 22 347 6.7 1 1
53 128 2 0 1 1 1 1 1 781.0 10 154 2.88 0 1
54 128 2 0 1 1 0 1 0 981.0 20 314 1.94 0 1
55 128 2 0 1 0 0 0 1 1137.0 9 139 1.74 0 1
56 128 2 0 1 1 1 1 1 921.0 9 142 3.22 0 1
57 128 2 0 1 0 0 0 1 2726.0 15 240 2.57 0 1
58 128 2 0 1 0 0 0 1 826.0 9 136 3.1 0 1
59 128 2 0 1 0 1 0 0 882.0 20 319 2.13 0 1
60 128 2 0 1 0 1 0 0 911.0 4 64 2.52 0 1
61 128 2 0 1 1 1 1 1 604.0 4 62 2.95 0 1
62 128 2 0 1 0 0 0 1 1520.0 4 59 1.99 0 1
63 128 2 0 1 0 0 0 1 767.0 25 397 1.77 0 1
64 128 2 0 1 0 0 0 1 623.0 25 398 1.43 0 1
65 128 2 0 1 1 1 1 1 718.0 13 207 3.11 0 1
66 128 2 0 1 1 0 1 0 1034.0 23 365 6.57 1 1
67 128 2 0 1 0 1 0 0 828.0 20 307 1.87 0 1
68 128 2 0 1 0 1 0 0 770.0 17 259 2.5 0 1
69 128 2 0 1 1 1 1 1 699.0 9 141 3.12 0 1
70 128 2 0 1 0 0 0 1 756.0 24 373 7.32 1 1
71 128 2 0 1 1 0 1 0 827.0 29 452 1.8 0 1
72 128 2 0 1 0 0 0 1 863.0 2 25 1.89 0 1
73 128 2 0 1 0 1 0 0 771.0 15 228 3.15 0 1
74 128 2 0 1 1 1 1 1 870.0 9 129 3.25 0 1
75 128 2 0 1 1 1 1 1 1750.0 2 29 2.68 0 1
76 128 2 0 1 0 1 0 0 937.0 25 396 1.85 0 1
77 128 2 0 1 0 0 0 1 588.0 1 8 1.95 0 1
78 128 2 0 1 1 0 1 0 893.0 17 269 2.8 0 1
79 128 2 0 1 0 0 0 1 946.0 23 362 7.17 1 1
80 128 2 0 1 1 1 1 1 1077.0 17 261 2.14 0 1
81 128 2 0 1 1 1 1 1 612.0 3 33 2.97 0 1
82 128 2 0 1 0 0 0 1 742.0 17 266 2.6 0 1
83 128 2 0 1 1 0 1 0 1062.0 1 9 2.49 0 1
84 128 2 0 1 1 0 1 0 1058.0 18 279 1.97 0 1
85 128 2 0 1 0 0 0 1 760.0 18 277 2.23 0 1
86 128 2 0 1 0 1 0 0 870.0 29 451 1.86 0 1
87 128 2 0 1 0 0 0 1 686.0 3 35 3.14 0 1
88 128 2 0 1 0 0 0 1 1440.0 9 140 2.97 0 1
89 128 2 0 1 0 1 0 0 1215.0 1 10 3.15 0 1
90 128 2 0 1 1 1 1 1 1150.0 30 467 1.95 0 1
91 128 2 0 1 0 1 0 0 1950.0 3 37 3.08 0 1
92 128 2 0 1 0 1 0 0 770.0 13 197 2.97 0 1
93 128 2 0 1 1 1 1 1 986.0 15 238 3.31 0 1
94 128 2 0 1 1 1 1 1 1239.0 4 50 2.73 0 1
95 128 2 0 1 1 0 1 0 641.0 1 4 3.18 0 1
96 128 2 0 1 0 0 0 1 906.0 30 465 2.7 0 1
97 128 2 0 1 1 0 1 0 716.0 7 107 7.11 1 1
98 128 2 0 1 1 0 1 0 950.0 20 318 2.58 0 1
99 128 2 0 1 1 1 1 1 687.0 15 226 3.2 0 1
100 128 2 0 1 1 0 1 0 1028.0 2 24 2.31 0 1
1 141 2 0 1 0 1 0 0 2535.0 13 197 2.97 0 1
2 141 2 0 1 0 1 0 0 2039.0 3 36 2.98 0 1
3 141 2 0 1 1 1 1 1 1583.0 17 261 2.14 0 1
4 141 2 0 1 0 0 0 1 1701.0 18 277 2.23 0 1
5 141 2 0 1 0 1 0 0 1159.0 25 396 1.85 0 1
6 141 2 0 1 0 1 0 0 2876.0 7 106 7.66 1 1
7 141 2 0 1 1 1 1 1 1099.0 20 318 2.58 0 1
8 141 2 0 1 0 0 0 1 943.0 28 433 7.18 1 1
9 141 2 0 1 0 0 0 1 1254.0 4 59 1.99 0 1
10 141 2 0 1 1 0 1 0 727.0 9 129 3.25 0 1
11 141 2 0 1 1 0 1 0 665.0 28 447 7.79 1 1
12 141 2 0 1 1 0 1 0 837.0 18 284 1.92 0 1
13 141 2 0 1 0 0 0 1 675.0 4 64 2.52 0 1
14 141 2 0 1 1 1 1 1 910.0 3 42 2.84 0 1
15 141 2 0 1 0 1 0 0 685.0 20 307 1.87 0 1
16 141 2 0 1 1 1 1 1 786.0 18 287 2.19 0 1
17 141 2 0 1 0 0 0 1 1188.0 30 472 2.55 0 1
18 141 2 0 1 1 0 1 0 1454.0 23 365 6.57 1 1
19 141 2 0 1 0 1 0 0 1014.0 25 397 1.77 0 1
20 141 2 0 1 1 1 1 1 315.0 6 86 8.01 1 1
21 141 2 0 1 0 0 0 1 704.0 17 263 2.59 0 1
22 141 2 0 1 1 1 1 1 804.0 24 382 6.86 1 1
23 141 2 0 1 1 1 1 1 703.0 1 9 2.49 0 1
24 141 2 0 1 0 0 0 1 1271.0 1 8 1.95 0 1
25 141 2 0 1 1 1 1 1 1165.0 30 467 1.95 0 1
26 141 2 0 1 1 1 1 1 1228.0 9 142 3.22 0 1
27 141 2 0 1 1 0 1 0 805.0 30 466 2.9 0 1
28 141 2 0 1 0 1 0 0 896.0 2 17 1.92 0 1
29 141 2 0 1 0 1 0 0 647.0 24 373 7.32 1 1
30 141 2 0 1 1 1 1 1 514.0 10 154 2.88 0 1
31 141 2 0 1 0 1 0 0 1221.0 10 158 2.59 0 1
32 141 2 0 1 1 1 1 1 669.0 13 206 3.41 0 1
33 141 2 0 1 0 0 0 1 961.0 25 398 1.43 0 1
34 141 2 0 1 1 1 1 1 748.0 3 33 2.97 0 1
35 141 2 0 1 0 1 0 0 747.0 4 56 3.02 0 1
36 141 2 0 1 0 1 0 0 681.0 2 18 1.84 0 1
37 141 2 0 1 0 0 0 1 263.0 20 319 2.13 0 1
38 141 2 0 1 1 1 1 1 3186.0 17 269 2.8 0 1
39 141 2 0 1 1 0 1 0 722.0 9 141 3.12 0 1
40 141 2 0 1 0 0 0 1 1200.0 3 37 3.08 0 1
41 141 2 0 1 0 1 0 0 1496.0 9 140 2.97 0 1
42 141 2 0 1 1 1 1 1 432.0 15 238 3.31 0 1
43 141 2 0 1 0 1 0 0 748.0 3 35 3.14 0 1
44 141 2 0 1 0 1 0 0 418.0 15 230 3.4 0 1
45 141 2 0 1 0 1 0 0 473.0 29 464 1.93 0 1
46 141 2 0 1 1 1 1 1 434.0 13 207 3.11 0 1
47 141 2 0 1 1 0 1 0 440.0 17 258 2.89 0 1
48 141 2 0 1 0 0 0 1 631.0 18 280 2.15 0 1
49 141 2 0 1 0 1 0 0 5200.0 30 465 2.7 0 1
50 141 2 0 1 1 1 1 1 759.0 8 125 7.28 1 1
51 141 2 0 1 0 1 0 0 600.0 29 451 1.86 0 1
52 141 2 0 1 1 1 1 1 480.0 20 314 1.94 0 1
53 141 2 0 1 1 1 1 1 497.0 15 227 2.67 0 1
54 141 2 0 1 0 1 0 0 456.0 30 476 2.48 0 1
55 141 2 0 1 1 1 1 1 217.0 7 99 7.24 1 1
56 141 2 0 1 1 0 1 0 769.0 7 107 7.11 1 1
57 141 2 0 1 1 0 1 0 388.0 4 50 2.73 0 1
58 141 2 0 1 0 0 0 1 356.0 6 85 7.32 1 1
59 141 2 0 1 0 0 0 1 368.0 22 347 6.7 1 1
60 141 2 0 1 1 1 1 1 762.0 25 385 1.43 0 1
61 141 2 0 1 0 1 0 0 728.0 10 155 1.73 0 1
62 141 2 0 1 0 0 0 1 1020.0 18 285 2.27 0 1
63 141 2 0 1 1 1 1 1 515.0 18 279 1.97 0 1
64 141 2 0 1 0 1 0 0 516.0 27 420 7.61 1 1
65 141 2 0 1 0 1 0 0 138.0 17 259 2.5 0 1
66 141 2 0 1 0 0 0 1 204.0 7 112 7.03 1 1
67 141 2 0 1 0 0 0 1 269.0 9 136 3.1 0 1
68 141 2 0 1 1 1 1 1 179.0 29 456 1.5 0 1
69 141 2 0 1 1 0 1 0 280.0 29 452 1.8 0 1
70 141 2 0 1 1 1 1 1 47.0 15 226 3.2 0 1
71 141 2 0 1 0 0 0 1 228.0 20 315 2.75 0 1
72 141 2 0 1 1 1 1 1 223.0 1 4 3.18 0 1
73 141 2 0 1 1 1 1 1 397.0 2 26 2.76 0 1
74 141 2 0 1 1 0 1 0 470.0 2 29 2.68 0 1
75 141 2 0 1 0 1 0 0 240.0 1 6 3.17 0 1
76 141 2 0 1 1 1 1 1 765.0 20 308 2.2 0 1
77 141 2 0 1 1 1 1 1 870.0 10 152 1.38 0 1
78 141 2 0 1 0 0 0 1 258.0 15 228 3.15 0 1
79 141 2 0 1 1 0 1 0 509.0 10 149 3.02 0 1
80 141 2 0 1 0 1 0 0 155.0 13 205 3.26 0 1
81 141 2 0 1 1 1 1 1 223.0 29 459 1.82 0 1
82 141 2 0 1 1 0 1 0 688.0 1 3 3.17 0 1
83 141 2 0 1 0 0 0 1 556.0 9 139 1.74 0 1
84 141 2 0 1 1 1 1 1 842.0 25 391 1.73 0 1
85 141 2 0 1 1 1 1 1 385.0 4 60 2.6 0 1
86 141 2 0 1 0 1 0 0 314.0 2 25 1.89 0 1
87 141 2 0 1 0 1 0 0 295.0 10 160 2.19 0 1
88 141 2 0 1 1 0 1 0 181.0 28 445 7.58 1 1
89 141 2 0 1 1 0 1 0 235.0 30 471 2.73 0 1
90 141 2 0 1 0 0 0 1 426.0 15 240 2.57 0 1
91 141 2 0 1 0 1 0 0 519.0 23 362 7.17 1 1
92 141 2 0 1 1 1 1 1 224.0 4 62 2.95 0 1
93 141 2 0 1 0 1 0 0 499.0 13 198 2.65 0 1
94 141 2 0 1 1 1 1 1 267.0 2 24 2.31 0 1
95 141 2 0 1 0 1 0 0 440.0 17 266 2.6 0 1
96 141 2 0 1 1 0 1 0 186.0 3 47 3.05 0 1
97 141 2 0 1 0 0 0 1 189.0 29 463 2.0 0 1
98 141 2 0 1 1 1 1 1 705.0 13 202 3.09 0 1
99 141 2 0 1 0 1 0 0 572.0 1 10 3.15 0 1
100 141 2 0 1 1 1 1 1 358.0 25 400 1.71 0 1
1 264 1 0 1 1 0 1 0 4284.0 22 347 6.7 1 1
2 264 1 0 1 0 0 0 1 4215.0 23 365 6.57 1 1
3 264 1 0 1 1 1 1 1 4808.0 30 472 2.55 0 1
4 264 1 0 1 1 1 1 1 1114.0 30 476 2.48 0 1
5 264 1 0 1 0 0 0 1 1895.0 9 142 3.22 0 1
6 264 1 0 1 1 0 1 0 2315.0 1 6 3.17 0 1
7 264 1 0 1 0 0 0 1 2005.0 10 152 1.38 0 1
8 264 1 0 1 0 0 0 1 1361.0 29 456 1.5 0 1
9 264 1 0 1 1 1 1 1 1214.0 6 85 7.32 1 1
10 264 1 0 1 1 0 1 0 3775.0 13 205 3.26 0 1
11 264 1 0 1 1 0 1 0 1435.0 9 136 3.1 0 1
12 264 1 0 1 1 1 1 1 2219.0 18 280 2.15 0 1
13 264 1 0 1 1 0 1 0 2122.0 17 263 2.59 0 1
14 264 1 0 1 0 0 0 1 1234.0 4 60 2.6 0 1
15 264 1 0 1 0 0 0 1 1649.0 30 467 1.95 0 1
16 264 1 0 1 1 1 1 1 1571.0 13 198 2.65 0 1
17 264 1 0 1 0 0 0 1 1234.0 15 227 2.67 0 1
18 264 1 0 1 1 1 1 1 1932.0 24 373 7.32 1 1
19 264 1 0 1 1 0 1 0 1323.0 10 158 2.59 0 1
20 264 1 0 1 0 0 0 1 1364.0 2 24 2.31 0 1
21 264 1 0 1 1 1 1 1 1188.0 30 465 2.7 0 1
22 264 1 0 1 1 1 1 1 891.0 18 277 2.23 0 1
23 264 1 0 1 1 1 1 1 904.0 20 307 1.87 0 1
24 264 1 0 1 0 1 0 0 1044.0 15 226 3.2 0 1
25 264 1 0 1 0 1 0 0 1663.0 17 261 2.14 0 1
26 264 1 0 1 1 1 1 1 2041.0 4 56 3.02 0 1
27 264 1 0 1 0 0 0 1 864.0 3 33 2.97 0 1
28 264 1 0 1 0 0 0 1 1540.0 13 207 3.11 0 1
29 264 1 0 1 0 0 0 1 1064.0 30 466 2.9 0 1
30 264 1 0 1 1 1 1 1 1533.0 7 112 7.03 1 1
31 264 1 0 1 0 1 0 0 742.0 2 26 2.76 0 1
32 264 1 0 1 0 1 0 0 1161.0 10 149 3.02 0 1
33 264 1 0 1 1 1 1 1 1182.0 28 433 7.18 1 1
34 264 1 0 1 1 1 1 1 1123.0 27 420 7.61 1 1
35 264 1 0 1 1 0 1 0 1075.0 17 266 2.6 0 1
36 264 1 0 1 0 0 0 1 943.0 9 141 3.12 0 1
37 264 1 0 1 1 0 1 0 1255.0 10 155 1.73 0 1
38 264 1 0 1 0 1 0 0 1328.0 4 62 2.95 0 1
39 264 1 0 1 1 1 1 1 455.0 1 10 3.15 0 1
40 264 1 0 1 1 1 1 1 820.0 25 396 1.85 0 1
41 264 1 0 1 0 1 0 0 733.0 25 385 1.43 0 1
42 264 1 0 1 1 1 1 1 1281.0 18 285 2.27 0 1
43 264 1 0 1 0 0 0 1 5232.0 29 452 1.8 0 1
44 264 1 0 1 1 1 1 1 1184.0 9 139 1.74 0 1
45 264 1 0 1 1 0 1 0 1121.0 25 398 1.43 0 1
46 264 1 0 1 0 1 0 0 1481.0 17 269 2.8 0 1
47 264 1 0 1 1 0 1 0 1222.0 3 37 3.08 0 1
48 264 1 0 1 0 1 0 0 1030.0 18 279 1.97 0 1
49 264 1 0 1 1 1 1 1 1343.0 10 160 2.19 0 1
50 264 1 0 1 1 1 1 1 626.0 13 197 2.97 0 1
51 264 1 0 1 0 1 0 0 727.0 2 29 2.68 0 1
52 264 1 0 1 1 0 1 0 1509.0 9 140 2.97 0 1
53 264 1 0 1 1 0 1 0 1424.0 17 259 2.5 0 1
54 264 1 0 1 0 1 0 0 1050.0 28 447 7.79 1 1
55 264 1 0 1 1 0 1 0 1134.0 4 59 1.99 0 1
56 264 1 0 1 1 1 1 1 1186.0 29 451 1.86 0 1
57 264 1 0 1 0 1 0 0 992.0 20 314 1.94 0 1
58 264 1 0 1 0 0 0 1 939.0 10 154 2.88 0 1
59 264 1 0 1 1 0 1 0 918.0 3 36 2.98 0 1
60 264 1 0 1 0 1 0 0 1612.0 20 318 2.58 0 1
61 264 1 0 1 1 0 1 0 1357.0 2 25 1.89 0 1
62 264 1 0 1 1 1 1 1 1260.0 23 362 7.17 1 1
63 264 1 0 1 0 0 0 1 1495.0 3 47 3.05 0 1
