[{"width":1318,"height":711,"webaudio":true,"browser":"safari","browser_version":"18.6.0","mobile":false,"os":"Mac OS","fullscreen":true,"vsync_rate":59.23,"webcam":true,"microphone":true,"trial_type":"browser-check","trial_index":0,"plugin_version":"2.1.0","time_elapsed":1026,"subject_id":"88373","group":"Group2"},{"success":true,"timeout":false,"failed_images":[],"failed_audio":[],"failed_video":[],"trial_type":"preload","trial_index":1,"plugin_version":"2.1.0","time_elapsed":85288,"subject_id":"88373","group":"Group2"},{"rt":44003,"url":"SONA_consent_memorability.html","trial_type":"external-html","trial_index":2,"plugin_version":"2.1.0","time_elapsed":129411,"subject_id":"88373","group":"Group2"},{"success":true,"rt":2547,"trial_type":"fullscreen","trial_index":3,"plugin_version":"2.1.0","time_elapsed":132966,"subject_id":"88373","group":"Group2"},{"rt":9225,"stimulus":"<div style=\"max-width: 760px; margin: auto; font-size: 20px; line-height: 1.5;\">\n      <h1 style=\"text-align:center; font-size: 30px;\">Instructions</h1>\n      <p>\n        Welcome to the study on <b>visual memory</b>. This experiment consists of <b>two phases</b>: \n        a <b>study phase</b> and a <b>test phase</b>.\n      </p>\n      <p>\n        In the study phase, you will see a series of rock images along with their category labels.\n        The images will appear one at a time.\n        <b>Your task</b> is to learn the categories to which the rock images belong \n        and to remember each image as accurately as possible.\n      </p> \n      <p>\n        After the study phase, <b>your memory will be tested</b>. \n        Additional instructions for the test phase will be provided at that time.\n      </p>\n      <p>\n        If your computer has multiple <b>language settings</b> (e.g., English and another language),\n        please make sure it is set to English before starting.\n      </p>\n      <p>\n        You can track your progress using the <b>completion bar</b> at the top of the screen. \n        Please note that the bar will refresh when the test phase begins \n        to give you an accurate sense of your progress in both phases.\n      </p> \n      <p>\n        Press the button below when you are ready to begin.\n      </p>\n    </div>","response":0,"trial_type":"html-button-response","trial_index":4,"plugin_version":"2.1.0","time_elapsed":142194,"subject_id":"88373","group":"Group2"},{"rt":null,"stimulus":"<p style=\"font-size: 50px; margin: 0; text-align: center;\">+</p>","response":null,"trial_type":"html-keyboard-response","trial_index":5,"plugin_version":"2.1.0","time_elapsed":143199,"subject_id":"88373","group":"Group2"},{"task":"memory_phase","broad_category":"I","image_png":"I_Pegmatite_01.png","image_id":97,"category_name":"Pegmatite","category":7,"distinct_rating":5.93,"rt":null,"stimulus":"Stimuli_Rocks480/I_Pegmatite_01.png","response":null,"trial_type":"image-keyboard-response","trial_index":6,"plugin_version":"2.1.0","time_elapsed":145726,"subject_id":"88373","group":"Group2"},{"rt":null,"stimulus":"<p style=\"font-size: 50px; margin: 0; text-align: center;\">+</p>","response":null,"trial_type":"html-keyboard-response","trial_index":7,"plugin_version":"2.1.0","time_elapsed":146728,"subject_id":"88373","group":"Group2"},{"task":"memory_phase","broad_category":"I","image_png":"I_Gabbro_15.png","image_id":63,"category_name":"Gabbro","category":4,"distinct_rating":3.37,"rt":null,"stimulus":"Stimuli_Rocks480/I_Gabbro_15.png","response":null,"trial_type":"image-keyboard-response","trial_index":8,"plugin_version":"2.1.0","time_elapsed":149250,"subject_id":"88373","group":"Group2"},{"rt":null,"stimulus":"<p style=\"font-size: 50px; margin: 0; text-align: center;\">+</p>","response":null,"trial_type":"html-keyboard-response","trial_index":9,"plugin_version":"2.1.0","time_elapsed":150253,"subject_id":"88373","group":"Group2"},{"task":"memory_phase","broad_category":"I","image_png":"I_Pumice_04.png","image_id":132,"category_name":"Pumice","category":9,"distinct_rating":3.48,"rt":null,"stimulus":"Stimuli_Rocks480/I_Pumice_04.png","response":null,"trial_type":"image-keyboard-response","trial_index":10,"plugin_version":"2.1.0","time_elapsed":152774,"subject_id":"88373","group":"Group2"},{"rt":null,"stimulus":"<p style=\"font-size: 50px; margin: 0; text-align: center;\">+</p>","response":null,"trial_type":"html-keyboard-response","trial_index":11,"plugin_version":"2.1.0","time_elapsed":153777,"subject_id":"88373","group":"Group2"},{"task":"memory_phase","broad_category":"I","image_png":"I_Granite_08.png","image_id":72,"category_name":"Granite","category":5,"distinct_rating":3.95,"rt":null,"stimulus":"Stimuli_Rocks480/I_Granite_08.png","response":null,"trial_type":"image-keyboard-response","trial_index":12,"plugin_version":"2.1.0","time_elapsed":156299,"subject_id":"88373","group":"Group2"},{"rt":null,"stimulus":"<p style=\"font-size: 50px; margin: 0; text-align: center;\">+</p>","response":null,"trial_type":"html-keyboard-response","trial_index":13,"plugin_version":"2.1.0","time_elapsed":157302,"subject_id":"88373","group":"Group2"},{"task":"memory_phase","broad_category":"S","image_png":"S_Rock Gypsum_05.png","image_id":421,"category_name":"Rock Gypsum","category":27,"distinct_rating":3.48,"rt":null,"stimulus":"Stimuli_Rocks480/S_Rock Gypsum_05.png","response":null,"trial_type":"image-keyboard-response","trial_index":14,"plugin_version":"2.1.0","time_elapsed":159819,"subject_id":"88373","group":"Group2"},{"rt":null,"stimulus":"<p style=\"font-size: 50px; margin: 0; text-align: center;\">+</p>","response":null,"trial_type":"html-keyboard-response","trial_index":15,"plugin_version":"2.1.0","time_elapsed":160821,"subject_id":"88373","group":"Group2"},{"task":"memory_phase","broad_category":"S","image_png":"S_Chert_03.png","image_id":355,"category_name":"Chert","category":23,"distinct_rating":5.3,"rt":null,"stimulus":"Stimuli_Rocks480/S_Chert_03.png","response":null,"trial_type":"image-keyboard-response","trial_index":16,"plugin_version":"2.1.0","time_elapsed":163352,"subject_id":"88373","group":"Group2"},{"rt":null,"stimulus":"<p style=\"font-size: 50px; margin: 0; text-align: center;\">+</p>","response":null,"trial_type":"html-keyboard-response","trial_index":17,"plugin_version":"2.1.0","time_elapsed":164355,"subject_id":"88373","group":"Group2"},{"task":"memory_phase","broad_category":"M","image_png":"M_Amphibolite_16.png","image_id":176,"category_name":"Amphibolite","category":11,"distinct_rating":2.97,"rt":null,"stimulus":"Stimuli_Rocks480/M_Amphibolite_16.png","response":null,"trial_type":"image-keyboard-response","trial_index":18,"plugin_version":"2.1.0","time_elapsed":166877,"subject_id":"88373","group":"Group2"},{"rt":null,"stimulus":"<p style=\"font-size: 50px; margin: 0; text-align: center;\">+</p>","response":null,"trial_type":"html-keyboard-response","trial_index":19,"plugin_version":"2.1.0","time_elapsed":167880,"subject_id":"88373","group":"Group2"},{"task":"memory_phase","broad_category":"I","image_png":"I_Pegmatite_15.png","image_id":111,"category_name":"Pegmatite","category":7,"distinct_rating":7.02,"rt":null,"stimulus":"Stimuli_Rocks480/I_Pegmatite_15.png","response":null,"trial_type":"image-keyboard-response","trial_index":20,"plugin_version":"2.1.0","time_elapsed":170405,"subject_id":"88373","group":"Group2"},{"rt":null,"stimulus":"<p style=\"font-size: 50px; margin: 0; text-align: center;\">+</p>","response":null,"trial_type":"html-keyboard-response","trial_index":21,"plugin_version":"2.1.0","time_elapsed":171408,"subject_id":"88373","group":"Group2"},{"task":"memory_phase","broad_category":"M","image_png":"M_Schist_03.png","image_id":291,"category_name":"Schist","category":19,"distinct_rating":4.03,"rt":null,"stimulus":"Stimuli_Rocks480/M_Schist_03.png","response":null,"trial_type":"image-keyboard-response","trial_index":22,"plugin_version":"2.1.0","time_elapsed":173936,"subject_id":"88373","group":"Group2"},{"rt":null,"stimulus":"<p style=\"font-size: 50px; margin: 0; text-align: center;\">+</p>","response":null,"trial_type":"html-keyboard-response","trial_index":23,"plugin_version":"2.1.0","time_elapsed":174939,"subject_id":"88373","group":"Group2"},{"task":"memory_phase","broad_category":"M","image_png":"M_Migmatite_09.png","image_id":249,"category_name":"Migmatite","category":16,"distinct_rating":3.84,"rt":null,"stimulus":"Stimuli_Rocks480/M_Migmatite_09.png","response":null,"trial_type":"image-keyboard-response","trial_index":24,"plugin_version":"2.1.0","time_elapsed":177457,"subject_id":"88373","group":"Group2"},{"rt":null,"stimulus":"<p style=\"font-size: 50px; margin: 0; text-align: center;\">+</p>","response":null,"trial_type":"html-keyboard-response","trial_index":25,"plugin_version":"2.1.0","time_elapsed":178460,"subject_id":"88373","group":"Group2"},{"task":"memory_phase","broad_category":"M","image_png":"M_Phyllite_14.png","image_id":270,"category_name":"Phyllite","category":17,"distinct_rating":4.08,"rt":null,"stimulus":"Stimuli_Rocks480/M_Phyllite_14.png","response":null,"trial_type":"image-keyboard-response","trial_index":26,"plugin_version":"2.1.0","time_elapsed":180975,"subject_id":"88373","group":"Group2"},{"rt":null,"stimulus":"<p style=\"font-size: 50px; margin: 0; text-align: center;\">+</p>","response":null,"trial_type":"html-keyboard-response","trial_index":27,"plugin_version":"2.1.0","time_elapsed":181978,"subject_id":"88373","group":"Group2"},{"task":"memory_phase","broad_category":"I","image_png":"I_Diorite_10.png","image_id":42,"category_name":"Diorite","category":3,"distinct_rating":2.84,"rt":null,"stimulus":"Stimuli_Rocks480/I_Diorite_10.png","response":null,"trial_type":"image-keyboard-response","trial_index":28,"plugin_version":"2.1.0","time_elapsed":184500,"subject_id":"88373","group":"Group2"},{"rt":null,"stimulus":"<p style=\"font-size: 50px; margin: 0; text-align: center;\">+</p>","response":null,"trial_type":"html-keyboard-response","trial_index":29,"plugin_version":"2.1.0","time_elapsed":185503,"subject_id":"88373","group":"Group2"},{"task":"memory_phase","broad_category":"I","image_png":"I_Gabbro_07.png","image_id":55,"category_name":"Gabbro","category":4,"distinct_rating":4.29,"rt":null,"stimulus":"Stimuli_Rocks480/I_Gabbro_07.png","response":null,"trial_type":"image-keyboard-response","trial_index":30,"plugin_version":"2.1.0","time_elapsed":188025,"subject_id":"88373","group":"Group2"},{"rt":null,"stimulus":"<p style=\"font-size: 50px; margin: 0; text-align: center;\">+</p>","response":null,"trial_type":"html-keyboard-response","trial_index":31,"plugin_version":"2.1.0","time_elapsed":189028,"subject_id":"88373","group":"Group2"},{"task":"memory_phase","broad_category":"S","image_png":"S_Chert_02.png","image_id":354,"category_name":"Chert","category":23,"distinct_rating":3.81,"rt":null,"stimulus":"Stimuli_Rocks480/S_Chert_02.png","response":null,"trial_type":"image-keyboard-response","trial_index":32,"plugin_version":"2.1.0","time_elapsed":191545,"subject_id":"88373","group":"Group2"},{"rt":null,"stimulus":"<p style=\"font-size: 50px; margin: 0; text-align: center;\">+</p>","response":null,"trial_type":"html-keyboard-response","trial_index":33,"plugin_version":"2.1.0","time_elapsed":192548,"subject_id":"88373","group":"Group2"},{"task":"memory_phase","broad_category":"I","image_png":"I_Pegmatite_03.png","image_id":99,"category_name":"Pegmatite","category":7,"distinct_rating":7.24,"rt":null,"stimulus":"Stimuli_Rocks480/I_Pegmatite_03.png","response":null,"trial_type":"image-keyboard-response","trial_index":34,"plugin_version":"2.1.0","time_elapsed":195071,"subject_id":"88373","group":"Group2"},{"rt":null,"stimulus":"<p style=\"font-size: 50px; margin: 0; text-align: center;\">+</p>","response":null,"trial_type":"html-keyboard-response","trial_index":35,"plugin_version":"2.1.0","time_elapsed":196074,"subject_id":"88373","group":"Group2"},{"task":"memory_phase","broad_category":"M","image_png":"M_Hornfels_14.png","image_id":222,"category_name":"Hornfels","category":14,"distinct_rating":2.3,"rt":null,"stimulus":"Stimuli_Rocks480/M_Hornfels_14.png","response":null,"trial_type":"image-keyboard-response","trial_index":36,"plugin_version":"2.1.0","time_elapsed":198596,"subject_id":"88373","group":"Group2"},{"rt":null,"stimulus":"<p style=\"font-size: 50px; margin: 0; text-align: center;\">+</p>","response":null,"trial_type":"html-keyboard-response","trial_index":37,"plugin_version":"2.1.0","time_elapsed":199598,"subject_id":"88373","group":"Group2"},{"task":"memory_phase","broad_category":"S","image_png":"S_Chert_15.png","image_id":367,"category_name":"Chert","category":23,"distinct_rating":4.11,"rt":null,"stimulus":"Stimuli_Rocks480/S_Chert_15.png","response":null,"trial_type":"image-keyboard-response","trial_index":38,"plugin_version":"2.1.0","time_elapsed":202121,"subject_id":"88373","group":"Group2"},{"rt":null,"stimulus":"<p style=\"font-size: 50px; margin: 0; text-align: center;\">+</p>","response":null,"trial_type":"html-keyboard-response","trial_index":39,"plugin_version":"2.1.0","time_elapsed":203124,"subject_id":"88373","group":"Group2"},{"task":"memory_phase","broad_category":"M","image_png":"M_Gneiss_08.png","image_id":200,"category_name":"Gneiss","category":13,"distinct_rating":3.69,"rt":null,"stimulus":"Stimuli_Rocks480/M_Gneiss_08.png","response":null,"trial_type":"image-keyboard-response","trial_index":40,"plugin_version":"2.1.0","time_elapsed":205645,"subject_id":"88373","group":"Group2"},{"rt":null,"stimulus":"<p style=\"font-size: 50px; margin: 0; text-align: center;\">+</p>","response":null,"trial_type":"html-keyboard-response","trial_index":41,"plugin_version":"2.1.0","time_elapsed":206648,"subject_id":"88373","group":"Group2"},{"task":"memory_phase","broad_category":"M","image_png":"M_Hornfels_11.png","image_id":219,"category_name":"Hornfels","category":14,"distinct_rating":2.59,"rt":null,"stimulus":"Stimuli_Rocks480/M_Hornfels_11.png","response":null,"trial_type":"image-keyboard-response","trial_index":42,"plugin_version":"2.1.0","time_elapsed":209172,"subject_id":"88373","group":"Group2"},{"rt":null,"stimulus":"<p style=\"font-size: 50px; margin: 0; text-align: center;\">+</p>","response":null,"trial_type":"html-keyboard-response","trial_index":43,"plugin_version":"2.1.0","time_elapsed":210175,"subject_id":"88373","group":"Group2"},{"task":"memory_phase","broad_category":"I","image_png":"I_Basalt_08.png","image_id":24,"category_name":"Basalt","category":2,"distinct_rating":2.31,"rt":null,"stimulus":"Stimuli_Rocks480/I_Basalt_08.png","response":null,"trial_type":"image-keyboard-response","trial_index":44,"plugin_version":"2.1.0","time_elapsed":212709,"subject_id":"88373","group":"Group2"},{"rt":null,"stimulus":"<p style=\"font-size: 50px; margin: 0; text-align: center;\">+</p>","response":null,"trial_type":"html-keyboard-response","trial_index":45,"plugin_version":"2.1.0","time_elapsed":213712,"subject_id":"88373","group":"Group2"},{"task":"memory_phase","broad_category":"S","image_png":"S_Rock Salt_16.png","image_id":448,"category_name":"Rock Salt","category":28,"distinct_rating":6.23,"rt":null,"stimulus":"Stimuli_Rocks480/S_Rock Salt_16.png","response":null,"trial_type":"image-keyboard-response","trial_index":46,"plugin_version":"2.1.0","time_elapsed":216238,"subject_id":"88373","group":"Group2"},{"rt":null,"stimulus":"<p style=\"font-size: 50px; margin: 0; text-align: center;\">+</p>","response":null,"trial_type":"html-keyboard-response","trial_index":47,"plugin_version":"2.1.0","time_elapsed":217240,"subject_id":"88373","group":"Group2"},{"task":"memory_phase","broad_category":"I","image_png":"I_Rhyolite_04.png","image_id":148,"category_name":"Rhyolite","category":10,"distinct_rating":3.73,"rt":null,"stimulus":"Stimuli_Rocks480/I_Rhyolite_04.png","response":null,"trial_type":"image-keyboard-response","trial_index":48,"plugin_version":"2.1.0","time_elapsed":219765,"subject_id":"88373","group":"Group2"},{"rt":null,"stimulus":"<p style=\"font-size: 50px; margin: 0; text-align: center;\">+</p>","response":null,"trial_type":"html-keyboard-response","trial_index":49,"plugin_version":"2.1.0","time_elapsed":220768,"subject_id":"88373","group":"Group2"},{"task":"memory_phase","broad_category":"I","image_png":"I_Andesite_10.png","image_id":10,"category_name":"Andesite","category":1,"distinct_rating":3.15,"rt":null,"stimulus":"Stimuli_Rocks480/I_Andesite_10.png","response":null,"trial_type":"image-keyboard-response","trial_index":50,"plugin_version":"2.1.0","time_elapsed":223286,"subject_id":"88373","group":"Group2"},{"rt":null,"stimulus":"<p style=\"font-size: 50px; margin: 0; text-align: center;\">+</p>","response":null,"trial_type":"html-keyboard-response","trial_index":51,"plugin_version":"2.1.0","time_elapsed":224289,"subject_id":"88373","group":"Group2"},{"task":"memory_phase","broad_category":"M","image_png":"M_Migmatite_06.png","image_id":246,"category_name":"Migmatite","category":16,"distinct_rating":4.63,"rt":null,"stimulus":"Stimuli_Rocks480/M_Migmatite_06.png","response":null,"trial_type":"image-keyboard-response","trial_index":52,"plugin_version":"2.1.0","time_elapsed":226812,"subject_id":"88373","group":"Group2"},{"rt":null,"stimulus":"<p style=\"font-size: 50px; margin: 0; text-align: center;\">+</p>","response":null,"trial_type":"html-keyboard-response","trial_index":53,"plugin_version":"2.1.0","time_elapsed":227816,"subject_id":"88373","group":"Group2"},{"task":"memory_phase","broad_category":"M","image_png":"M_Quartzite_13.png","image_id":285,"category_name":"Quartzite","category":18,"distinct_rating":2.27,"rt":null,"stimulus":"Stimuli_Rocks480/M_Quartzite_13.png","response":null,"trial_type":"image-keyboard-response","trial_index":54,"plugin_version":"2.1.0","time_elapsed":230340,"subject_id":"88373","group":"Group2"},{"rt":null,"stimulus":"<p style=\"font-size: 50px; margin: 0; text-align: center;\">+</p>","response":null,"trial_type":"html-keyboard-response","trial_index":55,"plugin_version":"2.1.0","time_elapsed":231344,"subject_id":"88373","group":"Group2"},{"task":"memory_phase","broad_category":"M","image_png":"M_Migmatite_07.png","image_id":247,"category_name":"Migmatite","category":16,"distinct_rating":4.38,"rt":null,"stimulus":"Stimuli_Rocks480/M_Migmatite_07.png","response":null,"trial_type":"image-keyboard-response","trial_index":56,"plugin_version":"2.1.0","time_elapsed":233875,"subject_id":"88373","group":"Group2"},{"rt":null,"stimulus":"<p style=\"font-size: 50px; margin: 0; text-align: center;\">+</p>","response":null,"trial_type":"html-keyboard-response","trial_index":57,"plugin_version":"2.1.0","time_elapsed":234877,"subject_id":"88373","group":"Group2"},{"task":"memory_phase","broad_category":"M","image_png":"M_Gneiss_12.png","image_id":204,"category_name":"Gneiss","category":13,"distinct_rating":4.52,"rt":null,"stimulus":"Stimuli_Rocks480/M_Gneiss_12.png","response":null,"trial_type":"image-keyboard-response","trial_index":58,"plugin_version":"2.1.0","time_elapsed":237393,"subject_id":"88373","group":"Group2"},{"rt":null,"stimulus":"<p style=\"font-size: 50px; margin: 0; text-align: center;\">+</p>","response":null,"trial_type":"html-keyboard-response","trial_index":59,"plugin_version":"2.1.0","time_elapsed":238396,"subject_id":"88373","group":"Group2"},{"task":"memory_phase","broad_category":"M","image_png":"M_Amphibolite_06.png","image_id":166,"category_name":"Amphibolite","category":11,"distinct_rating":2.8,"rt":null,"stimulus":"Stimuli_Rocks480/M_Amphibolite_06.png","response":null,"trial_type":"image-keyboard-response","trial_index":60,"plugin_version":"2.1.0","time_elapsed":240914,"subject_id":"88373","group":"Group2"},{"rt":null,"stimulus":"<p style=\"font-size: 50px; margin: 0; text-align: center;\">+</p>","response":null,"trial_type":"html-keyboard-response","trial_index":61,"plugin_version":"2.1.0","time_elapsed":241917,"subject_id":"88373","group":"Group2"},{"task":"memory_phase","broad_category":"M","image_png":"M_Slate_12.png","image_id":316,"category_name":"Slate","category":20,"distinct_rating":3.25,"rt":null,"stimulus":"Stimuli_Rocks480/M_Slate_12.png","response":null,"trial_type":"image-keyboard-response","trial_index":62,"plugin_version":"2.1.0","time_elapsed":244432,"subject_id":"88373","group":"Group2"},{"rt":null,"stimulus":"<p style=\"font-size: 50px; margin: 0; text-align: center;\">+</p>","response":null,"trial_type":"html-keyboard-response","trial_index":63,"plugin_version":"2.1.0","time_elapsed":245434,"subject_id":"88373","group":"Group2"},{"task":"memory_phase","broad_category":"S","image_png":"S_Conglomerate_04.png","image_id":372,"category_name":"Conglomerate","category":24,"distinct_rating":5.91,"rt":null,"stimulus":"Stimuli_Rocks480/S_Conglomerate_04.png","response":null,"trial_type":"image-keyboard-response","trial_index":64,"plugin_version":"2.1.0","time_elapsed":247959,"subject_id":"88373","group":"Group2"},{"rt":null,"stimulus":"<p style=\"font-size: 50px; margin: 0; text-align: center;\">+</p>","response":null,"trial_type":"html-keyboard-response","trial_index":65,"plugin_version":"2.1.0","time_elapsed":248962,"subject_id":"88373","group":"Group2"},{"task":"memory_phase","broad_category":"I","image_png":"I_Pumice_14.png","image_id":142,"category_name":"Pumice","category":9,"distinct_rating":3.22,"rt":null,"stimulus":"Stimuli_Rocks480/I_Pumice_14.png","response":null,"trial_type":"image-keyboard-response","trial_index":66,"plugin_version":"2.1.0","time_elapsed":251487,"subject_id":"88373","group":"Group2"},{"rt":null,"stimulus":"<p style=\"font-size: 50px; margin: 0; text-align: center;\">+</p>","response":null,"trial_type":"html-keyboard-response","trial_index":67,"plugin_version":"2.1.0","time_elapsed":252489,"subject_id":"88373","group":"Group2"},{"task":"memory_phase","broad_category":"M","image_png":"M_Slate_02.png","image_id":306,"category_name":"Slate","category":20,"distinct_rating":2.88,"rt":null,"stimulus":"Stimuli_Rocks480/M_Slate_02.png","response":null,"trial_type":"image-keyboard-response","trial_index":68,"plugin_version":"2.1.0","time_elapsed":255002,"subject_id":"88373","group":"Group2"},{"rt":null,"stimulus":"<p style=\"font-size: 50px; margin: 0; text-align: center;\">+</p>","response":null,"trial_type":"html-keyboard-response","trial_index":69,"plugin_version":"2.1.0","time_elapsed":256005,"subject_id":"88373","group":"Group2"},{"task":"memory_phase","broad_category":"S","image_png":"S_Sandstone_16.png","image_id":464,"category_name":"Sandstone","category":29,"distinct_rating":1.93,"rt":null,"stimulus":"Stimuli_Rocks480/S_Sandstone_16.png","response":null,"trial_type":"image-keyboard-response","trial_index":70,"plugin_version":"2.1.0","time_elapsed":258523,"subject_id":"88373","group":"Group2"},{"rt":null,"stimulus":"<p style=\"font-size: 50px; margin: 0; text-align: center;\">+</p>","response":null,"trial_type":"html-keyboard-response","trial_index":71,"plugin_version":"2.1.0","time_elapsed":259525,"subject_id":"88373","group":"Group2"},{"task":"memory_phase","broad_category":"I","image_png":"I_Pumice_11.png","image_id":139,"category_name":"Pumice","category":9,"distinct_rating":1.74,"rt":null,"stimulus":"Stimuli_Rocks480/I_Pumice_11.png","response":null,"trial_type":"image-keyboard-response","trial_index":72,"plugin_version":"2.1.0","time_elapsed":262040,"subject_id":"88373","group":"Group2"},{"rt":null,"stimulus":"<p style=\"font-size: 50px; margin: 0; text-align: center;\">+</p>","response":null,"trial_type":"html-keyboard-response","trial_index":73,"plugin_version":"2.1.0","time_elapsed":263043,"subject_id":"88373","group":"Group2"},{"task":"memory_phase","broad_category":"M","image_png":"M_Gneiss_13.png","image_id":205,"category_name":"Gneiss","category":13,"distinct_rating":3.26,"rt":null,"stimulus":"Stimuli_Rocks480/M_Gneiss_13.png","response":null,"trial_type":"image-keyboard-response","trial_index":74,"plugin_version":"2.1.0","time_elapsed":265562,"subject_id":"88373","group":"Group2"},{"rt":null,"stimulus":"<p style=\"font-size: 50px; margin: 0; text-align: center;\">+</p>","response":null,"trial_type":"html-keyboard-response","trial_index":75,"plugin_version":"2.1.0","time_elapsed":266564,"subject_id":"88373","group":"Group2"},{"task":"memory_phase","broad_category":"S","image_png":"S_Sandstone_06.png","image_id":454,"category_name":"Sandstone","category":29,"distinct_rating":3.7,"rt":null,"stimulus":"Stimuli_Rocks480/S_Sandstone_06.png","response":null,"trial_type":"image-keyboard-response","trial_index":76,"plugin_version":"2.1.0","time_elapsed":269089,"subject_id":"88373","group":"Group2"},{"rt":null,"stimulus":"<p style=\"font-size: 50px; margin: 0; text-align: center;\">+</p>","response":null,"trial_type":"html-keyboard-response","trial_index":77,"plugin_version":"2.1.0","time_elapsed":270092,"subject_id":"88373","group":"Group2"},{"task":"memory_phase","broad_category":"I","image_png":"I_Obsidian_09.png","image_id":89,"category_name":"Obsidian","category":6,"distinct_rating":5.85,"rt":null,"stimulus":"Stimuli_Rocks480/I_Obsidian_09.png","response":null,"trial_type":"image-keyboard-response","trial_index":78,"plugin_version":"2.1.0","time_elapsed":272615,"subject_id":"88373","group":"Group2"},{"rt":null,"stimulus":"<p style=\"font-size: 50px; margin: 0; text-align: center;\">+</p>","response":null,"trial_type":"html-keyboard-response","trial_index":79,"plugin_version":"2.1.0","time_elapsed":273617,"subject_id":"88373","group":"Group2"},{"task":"memory_phase","broad_category":"S","image_png":"S_Chert_11.png","image_id":363,"category_name":"Chert","category":23,"distinct_rating":7.12,"rt":null,"stimulus":"Stimuli_Rocks480/S_Chert_11.png","response":null,"trial_type":"image-keyboard-response","trial_index":80,"plugin_version":"2.1.0","time_elapsed":276145,"subject_id":"88373","group":"Group2"},{"rt":null,"stimulus":"<p style=\"font-size: 50px; margin: 0; text-align: center;\">+</p>","response":null,"trial_type":"html-keyboard-response","trial_index":81,"plugin_version":"2.1.0","time_elapsed":277148,"subject_id":"88373","group":"Group2"},{"task":"memory_phase","broad_category":"S","image_png":"S_Rock Salt_07.png","image_id":439,"category_name":"Rock Salt","category":28,"distinct_rating":6.66,"rt":null,"stimulus":"Stimuli_Rocks480/S_Rock Salt_07.png","response":null,"trial_type":"image-keyboard-response","trial_index":82,"plugin_version":"2.1.0","time_elapsed":279671,"subject_id":"88373","group":"Group2"},{"rt":null,"stimulus":"<p style=\"font-size: 50px; margin: 0; text-align: center;\">+</p>","response":null,"trial_type":"html-keyboard-response","trial_index":83,"plugin_version":"2.1.0","time_elapsed":280674,"subject_id":"88373","group":"Group2"},{"task":"memory_phase","broad_category":"S","image_png":"S_Bituminous Coal_07.png","image_id":327,"category_name":"Bituminous Coal","category":21,"distinct_rating":3,"rt":null,"stimulus":"Stimuli_Rocks480/S_Bituminous Coal_07.png","response":null,"trial_type":"image-keyboard-response","trial_index":84,"plugin_version":"2.1.0","time_elapsed":283199,"subject_id":"88373","group":"Group2"},{"rt":null,"stimulus":"<p style=\"font-size: 50px; margin: 0; text-align: center;\">+</p>","response":null,"trial_type":"html-keyboard-response","trial_index":85,"plugin_version":"2.1.0","time_elapsed":284202,"subject_id":"88373","group":"Group2"},{"task":"memory_phase","broad_category":"I","image_png":"I_Peridotite_15.png","image_id":127,"category_name":"Peridotite","category":8,"distinct_rating":6.28,"rt":null,"stimulus":"Stimuli_Rocks480/I_Peridotite_15.png","response":null,"trial_type":"image-keyboard-response","trial_index":86,"plugin_version":"2.1.0","time_elapsed":286728,"subject_id":"88373","group":"Group2"},{"rt":null,"stimulus":"<p style=\"font-size: 50px; margin: 0; text-align: center;\">+</p>","response":null,"trial_type":"html-keyboard-response","trial_index":87,"plugin_version":"2.1.0","time_elapsed":287731,"subject_id":"88373","group":"Group2"},{"task":"memory_phase","broad_category":"I","image_png":"I_Andesite_13.png","image_id":13,"category_name":"Andesite","category":1,"distinct_rating":3.54,"rt":null,"stimulus":"Stimuli_Rocks480/I_Andesite_13.png","response":null,"trial_type":"image-keyboard-response","trial_index":88,"plugin_version":"2.1.0","time_elapsed":290261,"subject_id":"88373","group":"Group2"},{"rt":null,"stimulus":"<p style=\"font-size: 50px; margin: 0; text-align: center;\">+</p>","response":null,"trial_type":"html-keyboard-response","trial_index":89,"plugin_version":"2.1.0","time_elapsed":291263,"subject_id":"88373","group":"Group2"},{"task":"memory_phase","broad_category":"M","image_png":"M_Anthracite_05.png","image_id":181,"category_name":"Anthracite","category":12,"distinct_rating":4.71,"rt":null,"stimulus":"Stimuli_Rocks480/M_Anthracite_05.png","response":null,"trial_type":"image-keyboard-response","trial_index":90,"plugin_version":"2.1.0","time_elapsed":293785,"subject_id":"88373","group":"Group2"},{"rt":null,"stimulus":"<p style=\"font-size: 50px; margin: 0; text-align: center;\">+</p>","response":null,"trial_type":"html-keyboard-response","trial_index":91,"plugin_version":"2.1.0","time_elapsed":294787,"subject_id":"88373","group":"Group2"},{"task":"memory_phase","broad_category":"M","image_png":"M_Migmatite_13.png","image_id":253,"category_name":"Migmatite","category":16,"distinct_rating":5.01,"rt":null,"stimulus":"Stimuli_Rocks480/M_Migmatite_13.png","response":null,"trial_type":"image-keyboard-response","trial_index":92,"plugin_version":"2.1.0","time_elapsed":297311,"subject_id":"88373","group":"Group2"},{"rt":null,"stimulus":"<p style=\"font-size: 50px; margin: 0; text-align: center;\">+</p>","response":null,"trial_type":"html-keyboard-response","trial_index":93,"plugin_version":"2.1.0","time_elapsed":298314,"subject_id":"88373","group":"Group2"},{"task":"memory_phase","broad_category":"M","image_png":"M_Quartzite_07.png","image_id":279,"category_name":"Quartzite","category":18,"distinct_rating":1.97,"rt":null,"stimulus":"Stimuli_Rocks480/M_Quartzite_07.png","response":null,"trial_type":"image-keyboard-response","trial_index":94,"plugin_version":"2.1.0","time_elapsed":300842,"subject_id":"88373","group":"Group2"},{"rt":null,"stimulus":"<p style=\"font-size: 50px; margin: 0; text-align: center;\">+</p>","response":null,"trial_type":"html-keyboard-response","trial_index":95,"plugin_version":"2.1.0","time_elapsed":301845,"subject_id":"88373","group":"Group2"},{"task":"memory_phase","broad_category":"M","image_png":"M_Gneiss_16.png","image_id":208,"category_name":"Gneiss","category":13,"distinct_rating":3.64,"rt":null,"stimulus":"Stimuli_Rocks480/M_Gneiss_16.png","response":null,"trial_type":"image-keyboard-response","trial_index":96,"plugin_version":"2.1.0","time_elapsed":304367,"subject_id":"88373","group":"Group2"},{"rt":null,"stimulus":"<p style=\"font-size: 50px; margin: 0; text-align: center;\">+</p>","response":null,"trial_type":"html-keyboard-response","trial_index":97,"plugin_version":"2.1.0","time_elapsed":305370,"subject_id":"88373","group":"Group2"},{"task":"memory_phase","broad_category":"I","image_png":"I_Andesite_12.png","image_id":12,"category_name":"Andesite","category":1,"distinct_rating":3.75,"rt":null,"stimulus":"Stimuli_Rocks480/I_Andesite_12.png","response":null,"trial_type":"image-keyboard-response","trial_index":98,"plugin_version":"2.1.0","time_elapsed":307895,"subject_id":"88373","group":"Group2"},{"rt":null,"stimulus":"<p style=\"font-size: 50px; margin: 0; text-align: center;\">+</p>","response":null,"trial_type":"html-keyboard-response","trial_index":99,"plugin_version":"2.1.0","time_elapsed":308898,"subject_id":"88373","group":"Group2"},{"task":"memory_phase","broad_category":"I","image_png":"I_Pegmatite_02.png","image_id":98,"category_name":"Pegmatite","category":7,"distinct_rating":6.37,"rt":null,"stimulus":"Stimuli_Rocks480/I_Pegmatite_02.png","response":null,"trial_type":"image-keyboard-response","trial_index":100,"plugin_version":"2.1.0","time_elapsed":311426,"subject_id":"88373","group":"Group2"},{"rt":51518,"stimulus":"<p style=\"font-size: 35px;\">Press SPACE to continue study phase</p>","response":" ","trial_type":"html-keyboard-response","trial_index":101,"plugin_version":"2.1.0","time_elapsed":362945,"subject_id":"88373","group":"Group2"},{"rt":null,"stimulus":"<p style=\"font-size: 50px; margin: 0; text-align: center;\">+</p>","response":null,"trial_type":"html-keyboard-response","trial_index":102,"plugin_version":"2.1.0","time_elapsed":363948,"subject_id":"88373","group":"Group2"},{"task":"memory_phase","broad_category":"I","image_png":"I_Gabbro_16.png","image_id":64,"category_name":"Gabbro","category":4,"distinct_rating":2.52,"rt":null,"stimulus":"Stimuli_Rocks480/I_Gabbro_16.png","response":null,"trial_type":"image-keyboard-response","trial_index":103,"plugin_version":"2.1.0","time_elapsed":366471,"subject_id":"88373","group":"Group2"},{"rt":null,"stimulus":"<p style=\"font-size: 50px; margin: 0; text-align: center;\">+</p>","response":null,"trial_type":"html-keyboard-response","trial_index":104,"plugin_version":"2.1.0","time_elapsed":367473,"subject_id":"88373","group":"Group2"},{"task":"memory_phase","broad_category":"M","image_png":"M_Phyllite_15.png","image_id":271,"category_name":"Phyllite","category":17,"distinct_rating":3.05,"rt":null,"stimulus":"Stimuli_Rocks480/M_Phyllite_15.png","response":null,"trial_type":"image-keyboard-response","trial_index":105,"plugin_version":"2.1.0","time_elapsed":370002,"subject_id":"88373","group":"Group2"},{"rt":null,"stimulus":"<p style=\"font-size: 50px; margin: 0; text-align: center;\">+</p>","response":null,"trial_type":"html-keyboard-response","trial_index":106,"plugin_version":"2.1.0","time_elapsed":371006,"subject_id":"88373","group":"Group2"},{"task":"memory_phase","broad_category":"M","image_png":"M_Schist_09.png","image_id":297,"category_name":"Schist","category":19,"distinct_rating":3.31,"rt":null,"stimulus":"Stimuli_Rocks480/M_Schist_09.png","response":null,"trial_type":"image-keyboard-response","trial_index":107,"plugin_version":"2.1.0","time_elapsed":373533,"subject_id":"88373","group":"Group2"},{"rt":null,"stimulus":"<p style=\"font-size: 50px; margin: 0; text-align: center;\">+</p>","response":null,"trial_type":"html-keyboard-response","trial_index":108,"plugin_version":"2.1.0","time_elapsed":374536,"subject_id":"88373","group":"Group2"},{"task":"memory_phase","broad_category":"S","image_png":"S_Dolomite_14.png","image_id":398,"category_name":"Dolomite","category":25,"distinct_rating":1.43,"rt":null,"stimulus":"Stimuli_Rocks480/S_Dolomite_14.png","response":null,"trial_type":"image-keyboard-response","trial_index":109,"plugin_version":"2.1.0","time_elapsed":377059,"subject_id":"88373","group":"Group2"},{"rt":null,"stimulus":"<p style=\"font-size: 50px; margin: 0; text-align: center;\">+</p>","response":null,"trial_type":"html-keyboard-response","trial_index":110,"plugin_version":"2.1.0","time_elapsed":378062,"subject_id":"88373","group":"Group2"},{"task":"memory_phase","broad_category":"M","image_png":"M_Marble_05.png","image_id":229,"category_name":"Marble","category":15,"distinct_rating":4.1,"rt":null,"stimulus":"Stimuli_Rocks480/M_Marble_05.png","response":null,"trial_type":"image-keyboard-response","trial_index":111,"plugin_version":"2.1.0","time_elapsed":380584,"subject_id":"88373","group":"Group2"},{"rt":null,"stimulus":"<p style=\"font-size: 50px; margin: 0; text-align: center;\">+</p>","response":null,"trial_type":"html-keyboard-response","trial_index":112,"plugin_version":"2.1.0","time_elapsed":381587,"subject_id":"88373","group":"Group2"},{"task":"memory_phase","broad_category":"I","image_png":"I_Rhyolite_09.png","image_id":153,"category_name":"Rhyolite","category":10,"distinct_rating":3.52,"rt":null,"stimulus":"Stimuli_Rocks480/I_Rhyolite_09.png","response":null,"trial_type":"image-keyboard-response","trial_index":113,"plugin_version":"2.1.0","time_elapsed":384115,"subject_id":"88373","group":"Group2"},{"rt":null,"stimulus":"<p style=\"font-size: 50px; margin: 0; text-align: center;\">+</p>","response":null,"trial_type":"html-keyboard-response","trial_index":114,"plugin_version":"2.1.0","time_elapsed":385118,"subject_id":"88373","group":"Group2"},{"task":"memory_phase","broad_category":"S","image_png":"S_Micrite_05.png","image_id":405,"category_name":"Micrite","category":26,"distinct_rating":8.21,"rt":null,"stimulus":"Stimuli_Rocks480/S_Micrite_05.png","response":null,"trial_type":"image-keyboard-response","trial_index":115,"plugin_version":"2.1.0","time_elapsed":387641,"subject_id":"88373","group":"Group2"},{"rt":null,"stimulus":"<p style=\"font-size: 50px; margin: 0; text-align: center;\">+</p>","response":null,"trial_type":"html-keyboard-response","trial_index":116,"plugin_version":"2.1.0","time_elapsed":388644,"subject_id":"88373","group":"Group2"},{"task":"memory_phase","broad_category":"S","image_png":"S_Shale_16.png","image_id":480,"category_name":"Shale","category":30,"distinct_rating":2.31,"rt":null,"stimulus":"Stimuli_Rocks480/S_Shale_16.png","response":null,"trial_type":"image-keyboard-response","trial_index":117,"plugin_version":"2.1.0","time_elapsed":391176,"subject_id":"88373","group":"Group2"},{"rt":null,"stimulus":"<p style=\"font-size: 50px; margin: 0; text-align: center;\">+</p>","response":null,"trial_type":"html-keyboard-response","trial_index":118,"plugin_version":"2.1.0","time_elapsed":392179,"subject_id":"88373","group":"Group2"},{"task":"memory_phase","broad_category":"S","image_png":"S_Shale_03.png","image_id":467,"category_name":"Shale","category":30,"distinct_rating":1.95,"rt":null,"stimulus":"Stimuli_Rocks480/S_Shale_03.png","response":null,"trial_type":"image-keyboard-response","trial_index":119,"plugin_version":"2.1.0","time_elapsed":394709,"subject_id":"88373","group":"Group2"},{"rt":null,"stimulus":"<p style=\"font-size: 50px; margin: 0; text-align: center;\">+</p>","response":null,"trial_type":"html-keyboard-response","trial_index":120,"plugin_version":"2.1.0","time_elapsed":395712,"subject_id":"88373","group":"Group2"},{"task":"memory_phase","broad_category":"M","image_png":"M_Quartzite_03.png","image_id":275,"category_name":"Quartzite","category":18,"distinct_rating":3.6,"rt":null,"stimulus":"Stimuli_Rocks480/M_Quartzite_03.png","response":null,"trial_type":"image-keyboard-response","trial_index":121,"plugin_version":"2.1.0","time_elapsed":398237,"subject_id":"88373","group":"Group2"},{"rt":null,"stimulus":"<p style=\"font-size: 50px; margin: 0; text-align: center;\">+</p>","response":null,"trial_type":"html-keyboard-response","trial_index":122,"plugin_version":"2.1.0","time_elapsed":399239,"subject_id":"88373","group":"Group2"},{"task":"memory_phase","broad_category":"M","image_png":"M_Hornfels_02.png","image_id":210,"category_name":"Hornfels","category":14,"distinct_rating":2,"rt":null,"stimulus":"Stimuli_Rocks480/M_Hornfels_02.png","response":null,"trial_type":"image-keyboard-response","trial_index":123,"plugin_version":"2.1.0","time_elapsed":401763,"subject_id":"88373","group":"Group2"},{"rt":null,"stimulus":"<p style=\"font-size: 50px; margin: 0; text-align: center;\">+</p>","response":null,"trial_type":"html-keyboard-response","trial_index":124,"plugin_version":"2.1.0","time_elapsed":402766,"subject_id":"88373","group":"Group2"},{"task":"memory_phase","broad_category":"I","image_png":"I_Rhyolite_15.png","image_id":159,"category_name":"Rhyolite","category":10,"distinct_rating":4.58,"rt":null,"stimulus":"Stimuli_Rocks480/I_Rhyolite_15.png","response":null,"trial_type":"image-keyboard-response","trial_index":125,"plugin_version":"2.1.0","time_elapsed":405299,"subject_id":"88373","group":"Group2"},{"rt":null,"stimulus":"<p style=\"font-size: 50px; margin: 0; text-align: center;\">+</p>","response":null,"trial_type":"html-keyboard-response","trial_index":126,"plugin_version":"2.1.0","time_elapsed":406301,"subject_id":"88373","group":"Group2"},{"task":"memory_phase","broad_category":"S","image_png":"S_Shale_14.png","image_id":478,"category_name":"Shale","category":30,"distinct_rating":2.68,"rt":null,"stimulus":"Stimuli_Rocks480/S_Shale_14.png","response":null,"trial_type":"image-keyboard-response","trial_index":127,"plugin_version":"2.1.0","time_elapsed":408826,"subject_id":"88373","group":"Group2"},{"rt":null,"stimulus":"<p style=\"font-size: 50px; margin: 0; text-align: center;\">+</p>","response":null,"trial_type":"html-keyboard-response","trial_index":128,"plugin_version":"2.1.0","time_elapsed":409829,"subject_id":"88373","group":"Group2"},{"task":"memory_phase","broad_category":"S","image_png":"S_Shale_09.png","image_id":473,"category_name":"Shale","category":30,"distinct_rating":3.7,"rt":null,"stimulus":"Stimuli_Rocks480/S_Shale_09.png","response":null,"trial_type":"image-keyboard-response","trial_index":129,"plugin_version":"2.1.0","time_elapsed":412352,"subject_id":"88373","group":"Group2"},{"rt":null,"stimulus":"<p style=\"font-size: 50px; margin: 0; text-align: center;\">+</p>","response":null,"trial_type":"html-keyboard-response","trial_index":130,"plugin_version":"2.1.0","time_elapsed":413355,"subject_id":"88373","group":"Group2"},{"task":"memory_phase","broad_category":"M","image_png":"M_Amphibolite_15.png","image_id":175,"category_name":"Amphibolite","category":11,"distinct_rating":2.7,"rt":null,"stimulus":"Stimuli_Rocks480/M_Amphibolite_15.png","response":null,"trial_type":"image-keyboard-response","trial_index":131,"plugin_version":"2.1.0","time_elapsed":415872,"subject_id":"88373","group":"Group2"},{"rt":null,"stimulus":"<p style=\"font-size: 50px; margin: 0; text-align: center;\">+</p>","response":null,"trial_type":"html-keyboard-response","trial_index":132,"plugin_version":"2.1.0","time_elapsed":416874,"subject_id":"88373","group":"Group2"},{"task":"memory_phase","broad_category":"I","image_png":"I_Andesite_05.png","image_id":5,"category_name":"Andesite","category":1,"distinct_rating":3.32,"rt":null,"stimulus":"Stimuli_Rocks480/I_Andesite_05.png","response":null,"trial_type":"image-keyboard-response","trial_index":133,"plugin_version":"2.1.0","time_elapsed":419392,"subject_id":"88373","group":"Group2"},{"rt":null,"stimulus":"<p style=\"font-size: 50px; margin: 0; text-align: center;\">+</p>","response":null,"trial_type":"html-keyboard-response","trial_index":134,"plugin_version":"2.1.0","time_elapsed":420395,"subject_id":"88373","group":"Group2"},{"task":"memory_phase","broad_category":"M","image_png":"M_Quartzite_11.png","image_id":283,"category_name":"Quartzite","category":18,"distinct_rating":2.89,"rt":null,"stimulus":"Stimuli_Rocks480/M_Quartzite_11.png","response":null,"trial_type":"image-keyboard-response","trial_index":135,"plugin_version":"2.1.0","time_elapsed":422922,"subject_id":"88373","group":"Group2"},{"rt":null,"stimulus":"<p style=\"font-size: 50px; margin: 0; text-align: center;\">+</p>","response":null,"trial_type":"html-keyboard-response","trial_index":136,"plugin_version":"2.1.0","time_elapsed":423925,"subject_id":"88373","group":"Group2"},{"task":"memory_phase","broad_category":"S","image_png":"S_Dolomite_16.png","image_id":400,"category_name":"Dolomite","category":25,"distinct_rating":1.71,"rt":null,"stimulus":"Stimuli_Rocks480/S_Dolomite_16.png","response":null,"trial_type":"image-keyboard-response","trial_index":137,"plugin_version":"2.1.0","time_elapsed":426444,"subject_id":"88373","group":"Group2"},{"rt":null,"stimulus":"<p style=\"font-size: 50px; margin: 0; text-align: center;\">+</p>","response":null,"trial_type":"html-keyboard-response","trial_index":138,"plugin_version":"2.1.0","time_elapsed":427447,"subject_id":"88373","group":"Group2"},{"task":"memory_phase","broad_category":"S","image_png":"S_Bituminous Coal_06.png","image_id":326,"category_name":"Bituminous Coal","category":21,"distinct_rating":3.4,"rt":null,"stimulus":"Stimuli_Rocks480/S_Bituminous Coal_06.png","response":null,"trial_type":"image-keyboard-response","trial_index":139,"plugin_version":"2.1.0","time_elapsed":429970,"subject_id":"88373","group":"Group2"},{"rt":null,"stimulus":"<p style=\"font-size: 50px; margin: 0; text-align: center;\">+</p>","response":null,"trial_type":"html-keyboard-response","trial_index":140,"plugin_version":"2.1.0","time_elapsed":430973,"subject_id":"88373","group":"Group2"},{"task":"memory_phase","broad_category":"M","image_png":"M_Migmatite_02.png","image_id":242,"category_name":"Migmatite","category":16,"distinct_rating":3.98,"rt":null,"stimulus":"Stimuli_Rocks480/M_Migmatite_02.png","response":null,"trial_type":"image-keyboard-response","trial_index":141,"plugin_version":"2.1.0","time_elapsed":433491,"subject_id":"88373","group":"Group2"},{"rt":null,"stimulus":"<p style=\"font-size: 50px; margin: 0; text-align: center;\">+</p>","response":null,"trial_type":"html-keyboard-response","trial_index":142,"plugin_version":"2.1.0","time_elapsed":434494,"subject_id":"88373","group":"Group2"},{"task":"memory_phase","broad_category":"M","image_png":"M_Amphibolite_09.png","image_id":169,"category_name":"Amphibolite","category":11,"distinct_rating":3.83,"rt":null,"stimulus":"Stimuli_Rocks480/M_Amphibolite_09.png","response":null,"trial_type":"image-keyboard-response","trial_index":143,"plugin_version":"2.1.0","time_elapsed":437026,"subject_id":"88373","group":"Group2"},{"rt":null,"stimulus":"<p style=\"font-size: 50px; margin: 0; text-align: center;\">+</p>","response":null,"trial_type":"html-keyboard-response","trial_index":144,"plugin_version":"2.1.0","time_elapsed":438029,"subject_id":"88373","group":"Group2"},{"task":"memory_phase","broad_category":"S","image_png":"S_Dolomite_04.png","image_id":388,"category_name":"Dolomite","category":25,"distinct_rating":1.93,"rt":null,"stimulus":"Stimuli_Rocks480/S_Dolomite_04.png","response":null,"trial_type":"image-keyboard-response","trial_index":145,"plugin_version":"2.1.0","time_elapsed":440557,"subject_id":"88373","group":"Group2"},{"rt":null,"stimulus":"<p style=\"font-size: 50px; margin: 0; text-align: center;\">+</p>","response":null,"trial_type":"html-keyboard-response","trial_index":146,"plugin_version":"2.1.0","time_elapsed":441560,"subject_id":"88373","group":"Group2"},{"task":"memory_phase","broad_category":"I","image_png":"I_Peridotite_14.png","image_id":126,"category_name":"Peridotite","category":8,"distinct_rating":3.64,"rt":null,"stimulus":"Stimuli_Rocks480/I_Peridotite_14.png","response":null,"trial_type":"image-keyboard-response","trial_index":147,"plugin_version":"2.1.0","time_elapsed":444082,"subject_id":"88373","group":"Group2"},{"rt":null,"stimulus":"<p style=\"font-size: 50px; margin: 0; text-align: center;\">+</p>","response":null,"trial_type":"html-keyboard-response","trial_index":148,"plugin_version":"2.1.0","time_elapsed":445085,"subject_id":"88373","group":"Group2"},{"task":"memory_phase","broad_category":"M","image_png":"M_Slate_08.png","image_id":312,"category_name":"Slate","category":20,"distinct_rating":1.9,"rt":null,"stimulus":"Stimuli_Rocks480/M_Slate_08.png","response":null,"trial_type":"image-keyboard-response","trial_index":149,"plugin_version":"2.1.0","time_elapsed":447606,"subject_id":"88373","group":"Group2"},{"rt":null,"stimulus":"<p style=\"font-size: 50px; margin: 0; text-align: center;\">+</p>","response":null,"trial_type":"html-keyboard-response","trial_index":150,"plugin_version":"2.1.0","time_elapsed":448608,"subject_id":"88373","group":"Group2"},{"task":"memory_phase","broad_category":"S","image_png":"S_Breccia_01.png","image_id":337,"category_name":"Breccia","category":22,"distinct_rating":7.35,"rt":null,"stimulus":"Stimuli_Rocks480/S_Breccia_01.png","response":null,"trial_type":"image-keyboard-response","trial_index":151,"plugin_version":"2.1.0","time_elapsed":451140,"subject_id":"88373","group":"Group2"},{"rt":null,"stimulus":"<p style=\"font-size: 50px; margin: 0; text-align: center;\">+</p>","response":null,"trial_type":"html-keyboard-response","trial_index":152,"plugin_version":"2.1.0","time_elapsed":452142,"subject_id":"88373","group":"Group2"},{"task":"memory_phase","broad_category":"I","image_png":"I_Gabbro_01.png","image_id":49,"category_name":"Gabbro","category":4,"distinct_rating":3.61,"rt":null,"stimulus":"Stimuli_Rocks480/I_Gabbro_01.png","response":null,"trial_type":"image-keyboard-response","trial_index":153,"plugin_version":"2.1.0","time_elapsed":454665,"subject_id":"88373","group":"Group2"},{"rt":null,"stimulus":"<p style=\"font-size: 50px; margin: 0; text-align: center;\">+</p>","response":null,"trial_type":"html-keyboard-response","trial_index":154,"plugin_version":"2.1.0","time_elapsed":455668,"subject_id":"88373","group":"Group2"},{"task":"memory_phase","broad_category":"I","image_png":"I_Obsidian_12.png","image_id":92,"category_name":"Obsidian","category":6,"distinct_rating":5.7,"rt":null,"stimulus":"Stimuli_Rocks480/I_Obsidian_12.png","response":null,"trial_type":"image-keyboard-response","trial_index":155,"plugin_version":"2.1.0","time_elapsed":458192,"subject_id":"88373","group":"Group2"},{"rt":null,"stimulus":"<p style=\"font-size: 50px; margin: 0; text-align: center;\">+</p>","response":null,"trial_type":"html-keyboard-response","trial_index":156,"plugin_version":"2.1.0","time_elapsed":459195,"subject_id":"88373","group":"Group2"},{"task":"memory_phase","broad_category":"M","image_png":"M_Quartzite_15.png","image_id":287,"category_name":"Quartzite","category":18,"distinct_rating":2.19,"rt":null,"stimulus":"Stimuli_Rocks480/M_Quartzite_15.png","response":null,"trial_type":"image-keyboard-response","trial_index":157,"plugin_version":"2.1.0","time_elapsed":461722,"subject_id":"88373","group":"Group2"},{"rt":null,"stimulus":"<p style=\"font-size: 50px; margin: 0; text-align: center;\">+</p>","response":null,"trial_type":"html-keyboard-response","trial_index":158,"plugin_version":"2.1.0","time_elapsed":462725,"subject_id":"88373","group":"Group2"},{"task":"memory_phase","broad_category":"I","image_png":"I_Obsidian_15.png","image_id":95,"category_name":"Obsidian","category":6,"distinct_rating":6.67,"rt":null,"stimulus":"Stimuli_Rocks480/I_Obsidian_15.png","response":null,"trial_type":"image-keyboard-response","trial_index":159,"plugin_version":"2.1.0","time_elapsed":465248,"subject_id":"88373","group":"Group2"},{"rt":null,"stimulus":"<p style=\"font-size: 50px; margin: 0; text-align: center;\">+</p>","response":null,"trial_type":"html-keyboard-response","trial_index":160,"plugin_version":"2.1.0","time_elapsed":466250,"subject_id":"88373","group":"Group2"},{"task":"memory_phase","broad_category":"M","image_png":"M_Anthracite_08.png","image_id":184,"category_name":"Anthracite","category":12,"distinct_rating":4.77,"rt":null,"stimulus":"Stimuli_Rocks480/M_Anthracite_08.png","response":null,"trial_type":"image-keyboard-response","trial_index":161,"plugin_version":"2.1.0","time_elapsed":468772,"subject_id":"88373","group":"Group2"},{"rt":null,"stimulus":"<p style=\"font-size: 50px; margin: 0; text-align: center;\">+</p>","response":null,"trial_type":"html-keyboard-response","trial_index":162,"plugin_version":"2.1.0","time_elapsed":469775,"subject_id":"88373","group":"Group2"},{"task":"memory_phase","broad_category":"S","image_png":"S_Chert_05.png","image_id":357,"category_name":"Chert","category":23,"distinct_rating":5.12,"rt":null,"stimulus":"Stimuli_Rocks480/S_Chert_05.png","response":null,"trial_type":"image-keyboard-response","trial_index":163,"plugin_version":"2.1.0","time_elapsed":472298,"subject_id":"88373","group":"Group2"},{"rt":null,"stimulus":"<p style=\"font-size: 50px; margin: 0; text-align: center;\">+</p>","response":null,"trial_type":"html-keyboard-response","trial_index":164,"plugin_version":"2.1.0","time_elapsed":473301,"subject_id":"88373","group":"Group2"},{"task":"memory_phase","broad_category":"S","image_png":"S_Breccia_02.png","image_id":338,"category_name":"Breccia","category":22,"distinct_rating":5.94,"rt":null,"stimulus":"Stimuli_Rocks480/S_Breccia_02.png","response":null,"trial_type":"image-keyboard-response","trial_index":165,"plugin_version":"2.1.0","time_elapsed":475824,"subject_id":"88373","group":"Group2"},{"rt":null,"stimulus":"<p style=\"font-size: 50px; margin: 0; text-align: center;\">+</p>","response":null,"trial_type":"html-keyboard-response","trial_index":166,"plugin_version":"2.1.0","time_elapsed":476827,"subject_id":"88373","group":"Group2"},{"task":"memory_phase","broad_category":"S","image_png":"S_Breccia_03.png","image_id":339,"category_name":"Breccia","category":22,"distinct_rating":5.07,"rt":null,"stimulus":"Stimuli_Rocks480/S_Breccia_03.png","response":null,"trial_type":"image-keyboard-response","trial_index":167,"plugin_version":"2.1.0","time_elapsed":479361,"subject_id":"88373","group":"Group2"},{"rt":null,"stimulus":"<p style=\"font-size: 50px; margin: 0; text-align: center;\">+</p>","response":null,"trial_type":"html-keyboard-response","trial_index":168,"plugin_version":"2.1.0","time_elapsed":480363,"subject_id":"88373","group":"Group2"},{"task":"memory_phase","broad_category":"M","image_png":"M_Hornfels_13.png","image_id":221,"category_name":"Hornfels","category":14,"distinct_rating":3.2,"rt":null,"stimulus":"Stimuli_Rocks480/M_Hornfels_13.png","response":null,"trial_type":"image-keyboard-response","trial_index":169,"plugin_version":"2.1.0","time_elapsed":482887,"subject_id":"88373","group":"Group2"},{"rt":null,"stimulus":"<p style=\"font-size: 50px; margin: 0; text-align: center;\">+</p>","response":null,"trial_type":"html-keyboard-response","trial_index":170,"plugin_version":"2.1.0","time_elapsed":483889,"subject_id":"88373","group":"Group2"},{"task":"memory_phase","broad_category":"M","image_png":"M_Anthracite_04.png","image_id":180,"category_name":"Anthracite","category":12,"distinct_rating":6.25,"rt":null,"stimulus":"Stimuli_Rocks480/M_Anthracite_04.png","response":null,"trial_type":"image-keyboard-response","trial_index":171,"plugin_version":"2.1.0","time_elapsed":486414,"subject_id":"88373","group":"Group2"},{"rt":null,"stimulus":"<p style=\"font-size: 50px; margin: 0; text-align: center;\">+</p>","response":null,"trial_type":"html-keyboard-response","trial_index":172,"plugin_version":"2.1.0","time_elapsed":487417,"subject_id":"88373","group":"Group2"},{"task":"memory_phase","broad_category":"I","image_png":"I_Obsidian_07.png","image_id":87,"category_name":"Obsidian","category":6,"distinct_rating":7.28,"rt":null,"stimulus":"Stimuli_Rocks480/I_Obsidian_07.png","response":null,"trial_type":"image-keyboard-response","trial_index":173,"plugin_version":"2.1.0","time_elapsed":489938,"subject_id":"88373","group":"Group2"},{"rt":null,"stimulus":"<p style=\"font-size: 50px; margin: 0; text-align: center;\">+</p>","response":null,"trial_type":"html-keyboard-response","trial_index":174,"plugin_version":"2.1.0","time_elapsed":490941,"subject_id":"88373","group":"Group2"},{"task":"memory_phase","broad_category":"S","image_png":"S_Bituminous Coal_04.png","image_id":324,"category_name":"Bituminous Coal","category":21,"distinct_rating":4.93,"rt":null,"stimulus":"Stimuli_Rocks480/S_Bituminous Coal_04.png","response":null,"trial_type":"image-keyboard-response","trial_index":175,"plugin_version":"2.1.0","time_elapsed":493466,"subject_id":"88373","group":"Group2"},{"rt":null,"stimulus":"<p style=\"font-size: 50px; margin: 0; text-align: center;\">+</p>","response":null,"trial_type":"html-keyboard-response","trial_index":176,"plugin_version":"2.1.0","time_elapsed":494468,"subject_id":"88373","group":"Group2"},{"task":"memory_phase","broad_category":"M","image_png":"M_Slate_15.png","image_id":319,"category_name":"Slate","category":20,"distinct_rating":2.13,"rt":null,"stimulus":"Stimuli_Rocks480/M_Slate_15.png","response":null,"trial_type":"image-keyboard-response","trial_index":177,"plugin_version":"2.1.0","time_elapsed":496984,"subject_id":"88373","group":"Group2"},{"rt":null,"stimulus":"<p style=\"font-size: 50px; margin: 0; text-align: center;\">+</p>","response":null,"trial_type":"html-keyboard-response","trial_index":178,"plugin_version":"2.1.0","time_elapsed":497987,"subject_id":"88373","group":"Group2"},{"task":"memory_phase","broad_category":"S","image_png":"S_Rock Salt_02.png","image_id":434,"category_name":"Rock Salt","category":28,"distinct_rating":5.13,"rt":null,"stimulus":"Stimuli_Rocks480/S_Rock Salt_02.png","response":null,"trial_type":"image-keyboard-response","trial_index":179,"plugin_version":"2.1.0","time_elapsed":500507,"subject_id":"88373","group":"Group2"},{"rt":null,"stimulus":"<p style=\"font-size: 50px; margin: 0; text-align: center;\">+</p>","response":null,"trial_type":"html-keyboard-response","trial_index":180,"plugin_version":"2.1.0","time_elapsed":501510,"subject_id":"88373","group":"Group2"},{"task":"memory_phase","broad_category":"I","image_png":"I_Rhyolite_10.png","image_id":154,"category_name":"Rhyolite","category":10,"distinct_rating":2.88,"rt":null,"stimulus":"Stimuli_Rocks480/I_Rhyolite_10.png","response":null,"trial_type":"image-keyboard-response","trial_index":181,"plugin_version":"2.1.0","time_elapsed":504043,"subject_id":"88373","group":"Group2"},{"rt":null,"stimulus":"<p style=\"font-size: 50px; margin: 0; text-align: center;\">+</p>","response":null,"trial_type":"html-keyboard-response","trial_index":182,"plugin_version":"2.1.0","time_elapsed":505046,"subject_id":"88373","group":"Group2"},{"task":"memory_phase","broad_category":"M","image_png":"M_Marble_07.png","image_id":231,"category_name":"Marble","category":15,"distinct_rating":3.77,"rt":null,"stimulus":"Stimuli_Rocks480/M_Marble_07.png","response":null,"trial_type":"image-keyboard-response","trial_index":183,"plugin_version":"2.1.0","time_elapsed":507569,"subject_id":"88373","group":"Group2"},{"rt":null,"stimulus":"<p style=\"font-size: 50px; margin: 0; text-align: center;\">+</p>","response":null,"trial_type":"html-keyboard-response","trial_index":184,"plugin_version":"2.1.0","time_elapsed":508572,"subject_id":"88373","group":"Group2"},{"task":"memory_phase","broad_category":"S","image_png":"S_Dolomite_15.png","image_id":399,"category_name":"Dolomite","category":25,"distinct_rating":2.16,"rt":null,"stimulus":"Stimuli_Rocks480/S_Dolomite_15.png","response":null,"trial_type":"image-keyboard-response","trial_index":185,"plugin_version":"2.1.0","time_elapsed":511092,"subject_id":"88373","group":"Group2"},{"rt":null,"stimulus":"<p style=\"font-size: 50px; margin: 0; text-align: center;\">+</p>","response":null,"trial_type":"html-keyboard-response","trial_index":186,"plugin_version":"2.1.0","time_elapsed":512094,"subject_id":"88373","group":"Group2"},{"task":"memory_phase","broad_category":"I","image_png":"I_Rhyolite_06.png","image_id":150,"category_name":"Rhyolite","category":10,"distinct_rating":5,"rt":null,"stimulus":"Stimuli_Rocks480/I_Rhyolite_06.png","response":null,"trial_type":"image-keyboard-response","trial_index":187,"plugin_version":"2.1.0","time_elapsed":514615,"subject_id":"88373","group":"Group2"},{"rt":null,"stimulus":"<p style=\"font-size: 50px; margin: 0; text-align: center;\">+</p>","response":null,"trial_type":"html-keyboard-response","trial_index":188,"plugin_version":"2.1.0","time_elapsed":515618,"subject_id":"88373","group":"Group2"},{"task":"memory_phase","broad_category":"M","image_png":"M_Quartzite_14.png","image_id":286,"category_name":"Quartzite","category":18,"distinct_rating":3.3,"rt":null,"stimulus":"Stimuli_Rocks480/M_Quartzite_14.png","response":null,"trial_type":"image-keyboard-response","trial_index":189,"plugin_version":"2.1.0","time_elapsed":518141,"subject_id":"88373","group":"Group2"},{"rt":null,"stimulus":"<p style=\"font-size: 50px; margin: 0; text-align: center;\">+</p>","response":null,"trial_type":"html-keyboard-response","trial_index":190,"plugin_version":"2.1.0","time_elapsed":519144,"subject_id":"88373","group":"Group2"},{"task":"memory_phase","broad_category":"S","image_png":"S_Conglomerate_09.png","image_id":377,"category_name":"Conglomerate","category":24,"distinct_rating":5.21,"rt":null,"stimulus":"Stimuli_Rocks480/S_Conglomerate_09.png","response":null,"trial_type":"image-keyboard-response","trial_index":191,"plugin_version":"2.1.0","time_elapsed":521666,"subject_id":"88373","group":"Group2"},{"rt":null,"stimulus":"<p style=\"font-size: 50px; margin: 0; text-align: center;\">+</p>","response":null,"trial_type":"html-keyboard-response","trial_index":192,"plugin_version":"2.1.0","time_elapsed":522669,"subject_id":"88373","group":"Group2"},{"task":"memory_phase","broad_category":"S","image_png":"S_Chert_14.png","image_id":366,"category_name":"Chert","category":23,"distinct_rating":4.5,"rt":null,"stimulus":"Stimuli_Rocks480/S_Chert_14.png","response":null,"trial_type":"image-keyboard-response","trial_index":193,"plugin_version":"2.1.0","time_elapsed":525189,"subject_id":"88373","group":"Group2"},{"rt":null,"stimulus":"<p style=\"font-size: 50px; margin: 0; text-align: center;\">+</p>","response":null,"trial_type":"html-keyboard-response","trial_index":194,"plugin_version":"2.1.0","time_elapsed":526192,"subject_id":"88373","group":"Group2"},{"task":"memory_phase","broad_category":"M","image_png":"M_Phyllite_07.png","image_id":263,"category_name":"Phyllite","category":17,"distinct_rating":2.59,"rt":null,"stimulus":"Stimuli_Rocks480/M_Phyllite_07.png","response":null,"trial_type":"image-keyboard-response","trial_index":195,"plugin_version":"2.1.0","time_elapsed":528710,"subject_id":"88373","group":"Group2"},{"rt":null,"stimulus":"<p style=\"font-size: 50px; margin: 0; text-align: center;\">+</p>","response":null,"trial_type":"html-keyboard-response","trial_index":196,"plugin_version":"2.1.0","time_elapsed":529713,"subject_id":"88373","group":"Group2"},{"task":"memory_phase","broad_category":"I","image_png":"I_Granite_03.png","image_id":67,"category_name":"Granite","category":5,"distinct_rating":3.6,"rt":null,"stimulus":"Stimuli_Rocks480/I_Granite_03.png","response":null,"trial_type":"image-keyboard-response","trial_index":197,"plugin_version":"2.1.0","time_elapsed":532239,"subject_id":"88373","group":"Group2"},{"rt":11614,"stimulus":"<p style=\"font-size: 35px;\">Press SPACE to continue study phase</p>","response":" ","trial_type":"html-keyboard-response","trial_index":198,"plugin_version":"2.1.0","time_elapsed":543856,"subject_id":"88373","group":"Group2"},{"rt":null,"stimulus":"<p style=\"font-size: 50px; margin: 0; text-align: center;\">+</p>","response":null,"trial_type":"html-keyboard-response","trial_index":199,"plugin_version":"2.1.0","time_elapsed":544859,"subject_id":"88373","group":"Group2"},{"task":"memory_phase","broad_category":"M","image_png":"M_Anthracite_16.png","image_id":192,"category_name":"Anthracite","category":12,"distinct_rating":5.66,"rt":null,"stimulus":"Stimuli_Rocks480/M_Anthracite_16.png","response":null,"trial_type":"image-keyboard-response","trial_index":200,"plugin_version":"2.1.0","time_elapsed":547385,"subject_id":"88373","group":"Group2"},{"rt":null,"stimulus":"<p style=\"font-size: 50px; margin: 0; text-align: center;\">+</p>","response":null,"trial_type":"html-keyboard-response","trial_index":201,"plugin_version":"2.1.0","time_elapsed":548388,"subject_id":"88373","group":"Group2"},{"task":"memory_phase","broad_category":"S","image_png":"S_Conglomerate_08.png","image_id":376,"category_name":"Conglomerate","category":24,"distinct_rating":4.83,"rt":null,"stimulus":"Stimuli_Rocks480/S_Conglomerate_08.png","response":null,"trial_type":"image-keyboard-response","trial_index":202,"plugin_version":"2.1.0","time_elapsed":550911,"subject_id":"88373","group":"Group2"},{"rt":null,"stimulus":"<p style=\"font-size: 50px; margin: 0; text-align: center;\">+</p>","response":null,"trial_type":"html-keyboard-response","trial_index":203,"plugin_version":"2.1.0","time_elapsed":551914,"subject_id":"88373","group":"Group2"},{"task":"memory_phase","broad_category":"I","image_png":"I_Diorite_05.png","image_id":37,"category_name":"Diorite","category":3,"distinct_rating":3.08,"rt":null,"stimulus":"Stimuli_Rocks480/I_Diorite_05.png","response":null,"trial_type":"image-keyboard-response","trial_index":204,"plugin_version":"2.1.0","time_elapsed":554441,"subject_id":"88373","group":"Group2"},{"rt":null,"stimulus":"<p style=\"font-size: 50px; margin: 0; text-align: center;\">+</p>","response":null,"trial_type":"html-keyboard-response","trial_index":205,"plugin_version":"2.1.0","time_elapsed":555445,"subject_id":"88373","group":"Group2"},{"task":"memory_phase","broad_category":"M","image_png":"M_Hornfels_16.png","image_id":224,"category_name":"Hornfels","category":14,"distinct_rating":2.84,"rt":null,"stimulus":"Stimuli_Rocks480/M_Hornfels_16.png","response":null,"trial_type":"image-keyboard-response","trial_index":206,"plugin_version":"2.1.0","time_elapsed":557980,"subject_id":"88373","group":"Group2"},{"rt":null,"stimulus":"<p style=\"font-size: 50px; margin: 0; text-align: center;\">+</p>","response":null,"trial_type":"html-keyboard-response","trial_index":207,"plugin_version":"2.1.0","time_elapsed":558983,"subject_id":"88373","group":"Group2"},{"task":"memory_phase","broad_category":"M","image_png":"M_Quartzite_02.png","image_id":274,"category_name":"Quartzite","category":18,"distinct_rating":2.52,"rt":null,"stimulus":"Stimuli_Rocks480/M_Quartzite_02.png","response":null,"trial_type":"image-keyboard-response","trial_index":208,"plugin_version":"2.1.0","time_elapsed":561509,"subject_id":"88373","group":"Group2"},{"rt":null,"stimulus":"<p style=\"font-size: 50px; margin: 0; text-align: center;\">+</p>","response":null,"trial_type":"html-keyboard-response","trial_index":209,"plugin_version":"2.1.0","time_elapsed":562512,"subject_id":"88373","group":"Group2"},{"task":"memory_phase","broad_category":"S","image_png":"S_Rock Salt_03.png","image_id":435,"category_name":"Rock Salt","category":28,"distinct_rating":4.83,"rt":null,"stimulus":"Stimuli_Rocks480/S_Rock Salt_03.png","response":null,"trial_type":"image-keyboard-response","trial_index":210,"plugin_version":"2.1.0","time_elapsed":565035,"subject_id":"88373","group":"Group2"},{"rt":null,"stimulus":"<p style=\"font-size: 50px; margin: 0; text-align: center;\">+</p>","response":null,"trial_type":"html-keyboard-response","trial_index":211,"plugin_version":"2.1.0","time_elapsed":566038,"subject_id":"88373","group":"Group2"},{"task":"memory_phase","broad_category":"I","image_png":"I_Pumice_08.png","image_id":136,"category_name":"Pumice","category":9,"distinct_rating":3.1,"rt":null,"stimulus":"Stimuli_Rocks480/I_Pumice_08.png","response":null,"trial_type":"image-keyboard-response","trial_index":212,"plugin_version":"2.1.0","time_elapsed":568559,"subject_id":"88373","group":"Group2"},{"rt":null,"stimulus":"<p style=\"font-size: 50px; margin: 0; text-align: center;\">+</p>","response":null,"trial_type":"html-keyboard-response","trial_index":213,"plugin_version":"2.1.0","time_elapsed":569562,"subject_id":"88373","group":"Group2"},{"task":"memory_phase","broad_category":"M","image_png":"M_Migmatite_05.png","image_id":245,"category_name":"Migmatite","category":16,"distinct_rating":4.03,"rt":null,"stimulus":"Stimuli_Rocks480/M_Migmatite_05.png","response":null,"trial_type":"image-keyboard-response","trial_index":214,"plugin_version":"2.1.0","time_elapsed":572083,"subject_id":"88373","group":"Group2"},{"rt":null,"stimulus":"<p style=\"font-size: 50px; margin: 0; text-align: center;\">+</p>","response":null,"trial_type":"html-keyboard-response","trial_index":215,"plugin_version":"2.1.0","time_elapsed":573085,"subject_id":"88373","group":"Group2"},{"task":"memory_phase","broad_category":"S","image_png":"S_Rock Salt_13.png","image_id":445,"category_name":"Rock Salt","category":28,"distinct_rating":7.58,"rt":null,"stimulus":"Stimuli_Rocks480/S_Rock Salt_13.png","response":null,"trial_type":"image-keyboard-response","trial_index":216,"plugin_version":"2.1.0","time_elapsed":575612,"subject_id":"88373","group":"Group2"},{"rt":null,"stimulus":"<p style=\"font-size: 50px; margin: 0; text-align: center;\">+</p>","response":null,"trial_type":"html-keyboard-response","trial_index":217,"plugin_version":"2.1.0","time_elapsed":576615,"subject_id":"88373","group":"Group2"},{"task":"memory_phase","broad_category":"S","image_png":"S_Rock Gypsum_11.png","image_id":427,"category_name":"Rock Gypsum","category":27,"distinct_rating":4.73,"rt":null,"stimulus":"Stimuli_Rocks480/S_Rock Gypsum_11.png","response":null,"trial_type":"image-keyboard-response","trial_index":218,"plugin_version":"2.1.0","time_elapsed":579134,"subject_id":"88373","group":"Group2"},{"rt":null,"stimulus":"<p style=\"font-size: 50px; margin: 0; text-align: center;\">+</p>","response":null,"trial_type":"html-keyboard-response","trial_index":219,"plugin_version":"2.1.0","time_elapsed":580137,"subject_id":"88373","group":"Group2"},{"task":"memory_phase","broad_category":"I","image_png":"I_Diorite_04.png","image_id":36,"category_name":"Diorite","category":3,"distinct_rating":2.98,"rt":null,"stimulus":"Stimuli_Rocks480/I_Diorite_04.png","response":null,"trial_type":"image-keyboard-response","trial_index":220,"plugin_version":"2.1.0","time_elapsed":582663,"subject_id":"88373","group":"Group2"},{"rt":null,"stimulus":"<p style=\"font-size: 50px; margin: 0; text-align: center;\">+</p>","response":null,"trial_type":"html-keyboard-response","trial_index":221,"plugin_version":"2.1.0","time_elapsed":583666,"subject_id":"88373","group":"Group2"},{"task":"memory_phase","broad_category":"M","image_png":"M_Anthracite_02.png","image_id":178,"category_name":"Anthracite","category":12,"distinct_rating":4.43,"rt":null,"stimulus":"Stimuli_Rocks480/M_Anthracite_02.png","response":null,"trial_type":"image-keyboard-response","trial_index":222,"plugin_version":"2.1.0","time_elapsed":586185,"subject_id":"88373","group":"Group2"},{"rt":null,"stimulus":"<p style=\"font-size: 50px; margin: 0; text-align: center;\">+</p>","response":null,"trial_type":"html-keyboard-response","trial_index":223,"plugin_version":"2.1.0","time_elapsed":587188,"subject_id":"88373","group":"Group2"},{"task":"memory_phase","broad_category":"S","image_png":"S_Conglomerate_13.png","image_id":381,"category_name":"Conglomerate","category":24,"distinct_rating":6.48,"rt":null,"stimulus":"Stimuli_Rocks480/S_Conglomerate_13.png","response":null,"trial_type":"image-keyboard-response","trial_index":224,"plugin_version":"2.1.0","time_elapsed":589722,"subject_id":"88373","group":"Group2"},{"rt":null,"stimulus":"<p style=\"font-size: 50px; margin: 0; text-align: center;\">+</p>","response":null,"trial_type":"html-keyboard-response","trial_index":225,"plugin_version":"2.1.0","time_elapsed":590724,"subject_id":"88373","group":"Group2"},{"task":"memory_phase","broad_category":"I","image_png":"I_Basalt_06.png","image_id":22,"category_name":"Basalt","category":2,"distinct_rating":2.08,"rt":null,"stimulus":"Stimuli_Rocks480/I_Basalt_06.png","response":null,"trial_type":"image-keyboard-response","trial_index":226,"plugin_version":"2.1.0","time_elapsed":593246,"subject_id":"88373","group":"Group2"},{"rt":null,"stimulus":"<p style=\"font-size: 50px; margin: 0; text-align: center;\">+</p>","response":null,"trial_type":"html-keyboard-response","trial_index":227,"plugin_version":"2.1.0","time_elapsed":594249,"subject_id":"88373","group":"Group2"},{"task":"memory_phase","broad_category":"I","image_png":"I_Obsidian_16.png","image_id":96,"category_name":"Obsidian","category":6,"distinct_rating":5.44,"rt":null,"stimulus":"Stimuli_Rocks480/I_Obsidian_16.png","response":null,"trial_type":"image-keyboard-response","trial_index":228,"plugin_version":"2.1.0","time_elapsed":596776,"subject_id":"88373","group":"Group2"},{"rt":null,"stimulus":"<p style=\"font-size: 50px; margin: 0; text-align: center;\">+</p>","response":null,"trial_type":"html-keyboard-response","trial_index":229,"plugin_version":"2.1.0","time_elapsed":597779,"subject_id":"88373","group":"Group2"},{"task":"memory_phase","broad_category":"S","image_png":"S_Shale_13.png","image_id":477,"category_name":"Shale","category":30,"distinct_rating":1.88,"rt":null,"stimulus":"Stimuli_Rocks480/S_Shale_13.png","response":null,"trial_type":"image-keyboard-response","trial_index":230,"plugin_version":"2.1.0","time_elapsed":600309,"subject_id":"88373","group":"Group2"},{"rt":null,"stimulus":"<p style=\"font-size: 50px; margin: 0; text-align: center;\">+</p>","response":null,"trial_type":"html-keyboard-response","trial_index":231,"plugin_version":"2.1.0","time_elapsed":601311,"subject_id":"88373","group":"Group2"},{"task":"memory_phase","broad_category":"M","image_png":"M_Amphibolite_05.png","image_id":165,"category_name":"Amphibolite","category":11,"distinct_rating":3.59,"rt":null,"stimulus":"Stimuli_Rocks480/M_Amphibolite_05.png","response":null,"trial_type":"image-keyboard-response","trial_index":232,"plugin_version":"2.1.0","time_elapsed":603837,"subject_id":"88373","group":"Group2"},{"rt":null,"stimulus":"<p style=\"font-size: 50px; margin: 0; text-align: center;\">+</p>","response":null,"trial_type":"html-keyboard-response","trial_index":233,"plugin_version":"2.1.0","time_elapsed":604839,"subject_id":"88373","group":"Group2"},{"task":"memory_phase","broad_category":"S","image_png":"S_Breccia_09.png","image_id":345,"category_name":"Breccia","category":22,"distinct_rating":6.7,"rt":null,"stimulus":"Stimuli_Rocks480/S_Breccia_09.png","response":null,"trial_type":"image-keyboard-response","trial_index":234,"plugin_version":"2.1.0","time_elapsed":607356,"subject_id":"88373","group":"Group2"},{"rt":null,"stimulus":"<p style=\"font-size: 50px; margin: 0; text-align: center;\">+</p>","response":null,"trial_type":"html-keyboard-response","trial_index":235,"plugin_version":"2.1.0","time_elapsed":608359,"subject_id":"88373","group":"Group2"},{"task":"memory_phase","broad_category":"I","image_png":"I_Granite_12.png","image_id":76,"category_name":"Granite","category":5,"distinct_rating":3.86,"rt":null,"stimulus":"Stimuli_Rocks480/I_Granite_12.png","response":null,"trial_type":"image-keyboard-response","trial_index":236,"plugin_version":"2.1.0","time_elapsed":610886,"subject_id":"88373","group":"Group2"},{"rt":null,"stimulus":"<p style=\"font-size: 50px; margin: 0; text-align: center;\">+</p>","response":null,"trial_type":"html-keyboard-response","trial_index":237,"plugin_version":"2.1.0","time_elapsed":611889,"subject_id":"88373","group":"Group2"},{"task":"memory_phase","broad_category":"S","image_png":"S_Conglomerate_01.png","image_id":369,"category_name":"Conglomerate","category":24,"distinct_rating":6.23,"rt":null,"stimulus":"Stimuli_Rocks480/S_Conglomerate_01.png","response":null,"trial_type":"image-keyboard-response","trial_index":238,"plugin_version":"2.1.0","time_elapsed":614413,"subject_id":"88373","group":"Group2"},{"rt":null,"stimulus":"<p style=\"font-size: 50px; margin: 0; text-align: center;\">+</p>","response":null,"trial_type":"html-keyboard-response","trial_index":239,"plugin_version":"2.1.0","time_elapsed":615415,"subject_id":"88373","group":"Group2"},{"task":"memory_phase","broad_category":"S","image_png":"S_Rock Gypsum_08.png","image_id":424,"category_name":"Rock Gypsum","category":27,"distinct_rating":5.57,"rt":null,"stimulus":"Stimuli_Rocks480/S_Rock Gypsum_08.png","response":null,"trial_type":"image-keyboard-response","trial_index":240,"plugin_version":"2.1.0","time_elapsed":617937,"subject_id":"88373","group":"Group2"},{"rt":null,"stimulus":"<p style=\"font-size: 50px; margin: 0; text-align: center;\">+</p>","response":null,"trial_type":"html-keyboard-response","trial_index":241,"plugin_version":"2.1.0","time_elapsed":618940,"subject_id":"88373","group":"Group2"},{"task":"memory_phase","broad_category":"M","image_png":"M_Marble_04.png","image_id":228,"category_name":"Marble","category":15,"distinct_rating":3.15,"rt":null,"stimulus":"Stimuli_Rocks480/M_Marble_04.png","response":null,"trial_type":"image-keyboard-response","trial_index":242,"plugin_version":"2.1.0","time_elapsed":621464,"subject_id":"88373","group":"Group2"},{"rt":null,"stimulus":"<p style=\"font-size: 50px; margin: 0; text-align: center;\">+</p>","response":null,"trial_type":"html-keyboard-response","trial_index":243,"plugin_version":"2.1.0","time_elapsed":622465,"subject_id":"88373","group":"Group2"},{"task":"memory_phase","broad_category":"I","image_png":"I_Andesite_08.png","image_id":8,"category_name":"Andesite","category":1,"distinct_rating":1.95,"rt":null,"stimulus":"Stimuli_Rocks480/I_Andesite_08.png","response":null,"trial_type":"image-keyboard-response","trial_index":244,"plugin_version":"2.1.0","time_elapsed":624990,"subject_id":"88373","group":"Group2"},{"rt":null,"stimulus":"<p style=\"font-size: 50px; margin: 0; text-align: center;\">+</p>","response":null,"trial_type":"html-keyboard-response","trial_index":245,"plugin_version":"2.1.0","time_elapsed":625993,"subject_id":"88373","group":"Group2"},{"task":"memory_phase","broad_category":"M","image_png":"M_Gneiss_06.png","image_id":198,"category_name":"Gneiss","category":13,"distinct_rating":2.65,"rt":null,"stimulus":"Stimuli_Rocks480/M_Gneiss_06.png","response":null,"trial_type":"image-keyboard-response","trial_index":246,"plugin_version":"2.1.0","time_elapsed":628521,"subject_id":"88373","group":"Group2"},{"rt":null,"stimulus":"<p style=\"font-size: 50px; margin: 0; text-align: center;\">+</p>","response":null,"trial_type":"html-keyboard-response","trial_index":247,"plugin_version":"2.1.0","time_elapsed":629523,"subject_id":"88373","group":"Group2"},{"task":"memory_phase","broad_category":"I","image_png":"I_Rhyolite_14.png","image_id":158,"category_name":"Rhyolite","category":10,"distinct_rating":2.59,"rt":null,"stimulus":"Stimuli_Rocks480/I_Rhyolite_14.png","response":null,"trial_type":"image-keyboard-response","trial_index":248,"plugin_version":"2.1.0","time_elapsed":632044,"subject_id":"88373","group":"Group2"},{"rt":null,"stimulus":"<p style=\"font-size: 50px; margin: 0; text-align: center;\">+</p>","response":null,"trial_type":"html-keyboard-response","trial_index":249,"plugin_version":"2.1.0","time_elapsed":633047,"subject_id":"88373","group":"Group2"},{"task":"memory_phase","broad_category":"S","image_png":"S_Rock Gypsum_02.png","image_id":418,"category_name":"Rock Gypsum","category":27,"distinct_rating":5.19,"rt":null,"stimulus":"Stimuli_Rocks480/S_Rock Gypsum_02.png","response":null,"trial_type":"image-keyboard-response","trial_index":250,"plugin_version":"2.1.0","time_elapsed":635561,"subject_id":"88373","group":"Group2"},{"rt":null,"stimulus":"<p style=\"font-size: 50px; margin: 0; text-align: center;\">+</p>","response":null,"trial_type":"html-keyboard-response","trial_index":251,"plugin_version":"2.1.0","time_elapsed":636564,"subject_id":"88373","group":"Group2"},{"task":"memory_phase","broad_category":"S","image_png":"S_Sandstone_08.png","image_id":456,"category_name":"Sandstone","category":29,"distinct_rating":1.5,"rt":null,"stimulus":"Stimuli_Rocks480/S_Sandstone_08.png","response":null,"trial_type":"image-keyboard-response","trial_index":252,"plugin_version":"2.1.0","time_elapsed":639090,"subject_id":"88373","group":"Group2"},{"rt":null,"stimulus":"<p style=\"font-size: 50px; margin: 0; text-align: center;\">+</p>","response":null,"trial_type":"html-keyboard-response","trial_index":253,"plugin_version":"2.1.0","time_elapsed":640094,"subject_id":"88373","group":"Group2"},{"task":"memory_phase","broad_category":"S","image_png":"S_Shale_08.png","image_id":472,"category_name":"Shale","category":30,"distinct_rating":2.55,"rt":null,"stimulus":"Stimuli_Rocks480/S_Shale_08.png","response":null,"trial_type":"image-keyboard-response","trial_index":254,"plugin_version":"2.1.0","time_elapsed":642621,"subject_id":"88373","group":"Group2"},{"rt":null,"stimulus":"<p style=\"font-size: 50px; margin: 0; text-align: center;\">+</p>","response":null,"trial_type":"html-keyboard-response","trial_index":255,"plugin_version":"2.1.0","time_elapsed":643624,"subject_id":"88373","group":"Group2"},{"task":"memory_phase","broad_category":"M","image_png":"M_Slate_11.png","image_id":315,"category_name":"Slate","category":20,"distinct_rating":2.75,"rt":null,"stimulus":"Stimuli_Rocks480/M_Slate_11.png","response":null,"trial_type":"image-keyboard-response","trial_index":256,"plugin_version":"2.1.0","time_elapsed":646144,"subject_id":"88373","group":"Group2"},{"rt":null,"stimulus":"<p style=\"font-size: 50px; margin: 0; text-align: center;\">+</p>","response":null,"trial_type":"html-keyboard-response","trial_index":257,"plugin_version":"2.1.0","time_elapsed":647147,"subject_id":"88373","group":"Group2"},{"task":"memory_phase","broad_category":"M","image_png":"M_Gneiss_10.png","image_id":202,"category_name":"Gneiss","category":13,"distinct_rating":3.09,"rt":null,"stimulus":"Stimuli_Rocks480/M_Gneiss_10.png","response":null,"trial_type":"image-keyboard-response","trial_index":258,"plugin_version":"2.1.0","time_elapsed":649671,"subject_id":"88373","group":"Group2"},{"rt":null,"stimulus":"<p style=\"font-size: 50px; margin: 0; text-align: center;\">+</p>","response":null,"trial_type":"html-keyboard-response","trial_index":259,"plugin_version":"2.1.0","time_elapsed":650674,"subject_id":"88373","group":"Group2"},{"task":"memory_phase","broad_category":"M","image_png":"M_Phyllite_04.png","image_id":260,"category_name":"Phyllite","category":17,"distinct_rating":4.37,"rt":null,"stimulus":"Stimuli_Rocks480/M_Phyllite_04.png","response":null,"trial_type":"image-keyboard-response","trial_index":260,"plugin_version":"2.1.0","time_elapsed":653202,"subject_id":"88373","group":"Group2"},{"rt":null,"stimulus":"<p style=\"font-size: 50px; margin: 0; text-align: center;\">+</p>","response":null,"trial_type":"html-keyboard-response","trial_index":261,"plugin_version":"2.1.0","time_elapsed":654205,"subject_id":"88373","group":"Group2"},{"task":"memory_phase","broad_category":"I","image_png":"I_Peridotite_03.png","image_id":115,"category_name":"Peridotite","category":8,"distinct_rating":5.71,"rt":null,"stimulus":"Stimuli_Rocks480/I_Peridotite_03.png","response":null,"trial_type":"image-keyboard-response","trial_index":262,"plugin_version":"2.1.0","time_elapsed":656731,"subject_id":"88373","group":"Group2"},{"rt":null,"stimulus":"<p style=\"font-size: 50px; margin: 0; text-align: center;\">+</p>","response":null,"trial_type":"html-keyboard-response","trial_index":263,"plugin_version":"2.1.0","time_elapsed":657734,"subject_id":"88373","group":"Group2"},{"task":"memory_phase","broad_category":"S","image_png":"S_Sandstone_11.png","image_id":459,"category_name":"Sandstone","category":29,"distinct_rating":1.82,"rt":null,"stimulus":"Stimuli_Rocks480/S_Sandstone_11.png","response":null,"trial_type":"image-keyboard-response","trial_index":264,"plugin_version":"2.1.0","time_elapsed":660265,"subject_id":"88373","group":"Group2"},{"rt":null,"stimulus":"<p style=\"font-size: 50px; margin: 0; text-align: center;\">+</p>","response":null,"trial_type":"html-keyboard-response","trial_index":265,"plugin_version":"2.1.0","time_elapsed":661267,"subject_id":"88373","group":"Group2"},{"task":"memory_phase","broad_category":"I","image_png":"I_Basalt_10.png","image_id":26,"category_name":"Basalt","category":2,"distinct_rating":2.76,"rt":null,"stimulus":"Stimuli_Rocks480/I_Basalt_10.png","response":null,"trial_type":"image-keyboard-response","trial_index":266,"plugin_version":"2.1.0","time_elapsed":663791,"subject_id":"88373","group":"Group2"},{"rt":null,"stimulus":"<p style=\"font-size: 50px; margin: 0; text-align: center;\">+</p>","response":null,"trial_type":"html-keyboard-response","trial_index":267,"plugin_version":"2.1.0","time_elapsed":664794,"subject_id":"88373","group":"Group2"},{"task":"memory_phase","broad_category":"S","image_png":"S_Micrite_06.png","image_id":406,"category_name":"Micrite","category":26,"distinct_rating":1.8,"rt":null,"stimulus":"Stimuli_Rocks480/S_Micrite_06.png","response":null,"trial_type":"image-keyboard-response","trial_index":268,"plugin_version":"2.1.0","time_elapsed":667330,"subject_id":"88373","group":"Group2"},{"rt":null,"stimulus":"<p style=\"font-size: 50px; margin: 0; text-align: center;\">+</p>","response":null,"trial_type":"html-keyboard-response","trial_index":269,"plugin_version":"2.1.0","time_elapsed":668333,"subject_id":"88373","group":"Group2"},{"task":"memory_phase","broad_category":"I","image_png":"I_Pumice_02.png","image_id":130,"category_name":"Pumice","category":9,"distinct_rating":4.41,"rt":null,"stimulus":"Stimuli_Rocks480/I_Pumice_02.png","response":null,"trial_type":"image-keyboard-response","trial_index":270,"plugin_version":"2.1.0","time_elapsed":670856,"subject_id":"88373","group":"Group2"},{"rt":null,"stimulus":"<p style=\"font-size: 50px; margin: 0; text-align: center;\">+</p>","response":null,"trial_type":"html-keyboard-response","trial_index":271,"plugin_version":"2.1.0","time_elapsed":671858,"subject_id":"88373","group":"Group2"},{"task":"memory_phase","broad_category":"M","image_png":"M_Phyllite_09.png","image_id":265,"category_name":"Phyllite","category":17,"distinct_rating":2.96,"rt":null,"stimulus":"Stimuli_Rocks480/M_Phyllite_09.png","response":null,"trial_type":"image-keyboard-response","trial_index":272,"plugin_version":"2.1.0","time_elapsed":674379,"subject_id":"88373","group":"Group2"},{"rt":null,"stimulus":"<p style=\"font-size: 50px; margin: 0; text-align: center;\">+</p>","response":null,"trial_type":"html-keyboard-response","trial_index":273,"plugin_version":"2.1.0","time_elapsed":675382,"subject_id":"88373","group":"Group2"},{"task":"memory_phase","broad_category":"S","image_png":"S_Micrite_12.png","image_id":412,"category_name":"Micrite","category":26,"distinct_rating":3.14,"rt":null,"stimulus":"Stimuli_Rocks480/S_Micrite_12.png","response":null,"trial_type":"image-keyboard-response","trial_index":274,"plugin_version":"2.1.0","time_elapsed":677906,"subject_id":"88373","group":"Group2"},{"rt":null,"stimulus":"<p style=\"font-size: 50px; margin: 0; text-align: center;\">+</p>","response":null,"trial_type":"html-keyboard-response","trial_index":275,"plugin_version":"2.1.0","time_elapsed":678909,"subject_id":"88373","group":"Group2"},{"task":"memory_phase","broad_category":"S","image_png":"S_Bituminous Coal_01.png","image_id":321,"category_name":"Bituminous Coal","category":21,"distinct_rating":4.17,"rt":null,"stimulus":"Stimuli_Rocks480/S_Bituminous Coal_01.png","response":null,"trial_type":"image-keyboard-response","trial_index":276,"plugin_version":"2.1.0","time_elapsed":681435,"subject_id":"88373","group":"Group2"},{"rt":null,"stimulus":"<p style=\"font-size: 50px; margin: 0; text-align: center;\">+</p>","response":null,"trial_type":"html-keyboard-response","trial_index":277,"plugin_version":"2.1.0","time_elapsed":682438,"subject_id":"88373","group":"Group2"},{"task":"memory_phase","broad_category":"I","image_png":"I_Diorite_11.png","image_id":43,"category_name":"Diorite","category":3,"distinct_rating":3.36,"rt":null,"stimulus":"Stimuli_Rocks480/I_Diorite_11.png","response":null,"trial_type":"image-keyboard-response","trial_index":278,"plugin_version":"2.1.0","time_elapsed":684968,"subject_id":"88373","group":"Group2"},{"rt":null,"stimulus":"<p style=\"font-size: 50px; margin: 0; text-align: center;\">+</p>","response":null,"trial_type":"html-keyboard-response","trial_index":279,"plugin_version":"2.1.0","time_elapsed":685970,"subject_id":"88373","group":"Group2"},{"task":"memory_phase","broad_category":"S","image_png":"S_Micrite_02.png","image_id":402,"category_name":"Micrite","category":26,"distinct_rating":2.77,"rt":null,"stimulus":"Stimuli_Rocks480/S_Micrite_02.png","response":null,"trial_type":"image-keyboard-response","trial_index":280,"plugin_version":"2.1.0","time_elapsed":688488,"subject_id":"88373","group":"Group2"},{"rt":null,"stimulus":"<p style=\"font-size: 50px; margin: 0; text-align: center;\">+</p>","response":null,"trial_type":"html-keyboard-response","trial_index":281,"plugin_version":"2.1.0","time_elapsed":689490,"subject_id":"88373","group":"Group2"},{"task":"memory_phase","broad_category":"M","image_png":"M_Slate_09.png","image_id":313,"category_name":"Slate","category":20,"distinct_rating":3.6,"rt":null,"stimulus":"Stimuli_Rocks480/M_Slate_09.png","response":null,"trial_type":"image-keyboard-response","trial_index":282,"plugin_version":"2.1.0","time_elapsed":692011,"subject_id":"88373","group":"Group2"},{"rt":null,"stimulus":"<p style=\"font-size: 50px; margin: 0; text-align: center;\">+</p>","response":null,"trial_type":"html-keyboard-response","trial_index":283,"plugin_version":"2.1.0","time_elapsed":693014,"subject_id":"88373","group":"Group2"},{"task":"memory_phase","broad_category":"M","image_png":"M_Phyllite_05.png","image_id":261,"category_name":"Phyllite","category":17,"distinct_rating":2.14,"rt":null,"stimulus":"Stimuli_Rocks480/M_Phyllite_05.png","response":null,"trial_type":"image-keyboard-response","trial_index":284,"plugin_version":"2.1.0","time_elapsed":695534,"subject_id":"88373","group":"Group2"},{"rt":null,"stimulus":"<p style=\"font-size: 50px; margin: 0; text-align: center;\">+</p>","response":null,"trial_type":"html-keyboard-response","trial_index":285,"plugin_version":"2.1.0","time_elapsed":696536,"subject_id":"88373","group":"Group2"},{"task":"memory_phase","broad_category":"I","image_png":"I_Pumice_05.png","image_id":133,"category_name":"Pumice","category":9,"distinct_rating":3.37,"rt":null,"stimulus":"Stimuli_Rocks480/I_Pumice_05.png","response":null,"trial_type":"image-keyboard-response","trial_index":286,"plugin_version":"2.1.0","time_elapsed":699065,"subject_id":"88373","group":"Group2"},{"rt":null,"stimulus":"<p style=\"font-size: 50px; margin: 0; text-align: center;\">+</p>","response":null,"trial_type":"html-keyboard-response","trial_index":287,"plugin_version":"2.1.0","time_elapsed":700067,"subject_id":"88373","group":"Group2"},{"task":"memory_phase","broad_category":"I","image_png":"I_Pumice_16.png","image_id":144,"category_name":"Pumice","category":9,"distinct_rating":5.37,"rt":null,"stimulus":"Stimuli_Rocks480/I_Pumice_16.png","response":null,"trial_type":"image-keyboard-response","trial_index":288,"plugin_version":"2.1.0","time_elapsed":702590,"subject_id":"88373","group":"Group2"},{"rt":null,"stimulus":"<p style=\"font-size: 50px; margin: 0; text-align: center;\">+</p>","response":null,"trial_type":"html-keyboard-response","trial_index":289,"plugin_version":"2.1.0","time_elapsed":703592,"subject_id":"88373","group":"Group2"},{"task":"memory_phase","broad_category":"M","image_png":"M_Anthracite_10.png","image_id":186,"category_name":"Anthracite","category":12,"distinct_rating":5.19,"rt":null,"stimulus":"Stimuli_Rocks480/M_Anthracite_10.png","response":null,"trial_type":"image-keyboard-response","trial_index":290,"plugin_version":"2.1.0","time_elapsed":706119,"subject_id":"88373","group":"Group2"},{"rt":null,"stimulus":"<p style=\"font-size: 50px; margin: 0; text-align: center;\">+</p>","response":null,"trial_type":"html-keyboard-response","trial_index":291,"plugin_version":"2.1.0","time_elapsed":707122,"subject_id":"88373","group":"Group2"},{"task":"memory_phase","broad_category":"S","image_png":"S_Breccia_05.png","image_id":341,"category_name":"Breccia","category":22,"distinct_rating":6.25,"rt":null,"stimulus":"Stimuli_Rocks480/S_Breccia_05.png","response":null,"trial_type":"image-keyboard-response","trial_index":292,"plugin_version":"2.1.0","time_elapsed":709647,"subject_id":"88373","group":"Group2"},{"rt":null,"stimulus":"<p style=\"font-size: 50px; margin: 0; text-align: center;\">+</p>","response":null,"trial_type":"html-keyboard-response","trial_index":293,"plugin_version":"2.1.0","time_elapsed":710649,"subject_id":"88373","group":"Group2"},{"task":"memory_phase","broad_category":"I","image_png":"I_Peridotite_16.png","image_id":128,"category_name":"Peridotite","category":8,"distinct_rating":4.48,"rt":null,"stimulus":"Stimuli_Rocks480/I_Peridotite_16.png","response":null,"trial_type":"image-keyboard-response","trial_index":294,"plugin_version":"2.1.0","time_elapsed":713179,"subject_id":"88373","group":"Group2"},{"rt":80823,"stimulus":"<p style=\"font-size: 35px;\">Press SPACE to continue study phase</p>","response":" ","trial_type":"html-keyboard-response","trial_index":295,"plugin_version":"2.1.0","time_elapsed":794002,"subject_id":"88373","group":"Group2"},{"rt":null,"stimulus":"<p style=\"font-size: 50px; margin: 0; text-align: center;\">+</p>","response":null,"trial_type":"html-keyboard-response","trial_index":296,"plugin_version":"2.1.0","time_elapsed":795005,"subject_id":"88373","group":"Group2"},{"task":"memory_phase","broad_category":"S","image_png":"S_Dolomite_13.png","image_id":397,"category_name":"Dolomite","category":25,"distinct_rating":1.77,"rt":null,"stimulus":"Stimuli_Rocks480/S_Dolomite_13.png","response":null,"trial_type":"image-keyboard-response","trial_index":297,"plugin_version":"2.1.0","time_elapsed":797526,"subject_id":"88373","group":"Group2"},{"rt":null,"stimulus":"<p style=\"font-size: 50px; margin: 0; text-align: center;\">+</p>","response":null,"trial_type":"html-keyboard-response","trial_index":298,"plugin_version":"2.1.0","time_elapsed":798529,"subject_id":"88373","group":"Group2"},{"task":"memory_phase","broad_category":"S","image_png":"S_Rock Gypsum_15.png","image_id":431,"category_name":"Rock Gypsum","category":27,"distinct_rating":6.11,"rt":null,"stimulus":"Stimuli_Rocks480/S_Rock Gypsum_15.png","response":null,"trial_type":"image-keyboard-response","trial_index":299,"plugin_version":"2.1.0","time_elapsed":801049,"subject_id":"88373","group":"Group2"},{"rt":null,"stimulus":"<p style=\"font-size: 50px; margin: 0; text-align: center;\">+</p>","response":null,"trial_type":"html-keyboard-response","trial_index":300,"plugin_version":"2.1.0","time_elapsed":802053,"subject_id":"88373","group":"Group2"},{"task":"memory_phase","broad_category":"M","image_png":"M_Migmatite_15.png","image_id":255,"category_name":"Migmatite","category":16,"distinct_rating":5.37,"rt":null,"stimulus":"Stimuli_Rocks480/M_Migmatite_15.png","response":null,"trial_type":"image-keyboard-response","trial_index":301,"plugin_version":"2.1.0","time_elapsed":804576,"subject_id":"88373","group":"Group2"},{"rt":null,"stimulus":"<p style=\"font-size: 50px; margin: 0; text-align: center;\">+</p>","response":null,"trial_type":"html-keyboard-response","trial_index":302,"plugin_version":"2.1.0","time_elapsed":805578,"subject_id":"88373","group":"Group2"},{"task":"memory_phase","broad_category":"S","image_png":"S_Rock Salt_06.png","image_id":438,"category_name":"Rock Salt","category":28,"distinct_rating":5.53,"rt":null,"stimulus":"Stimuli_Rocks480/S_Rock Salt_06.png","response":null,"trial_type":"image-keyboard-response","trial_index":303,"plugin_version":"2.1.0","time_elapsed":808099,"subject_id":"88373","group":"Group2"},{"rt":null,"stimulus":"<p style=\"font-size: 50px; margin: 0; text-align: center;\">+</p>","response":null,"trial_type":"html-keyboard-response","trial_index":304,"plugin_version":"2.1.0","time_elapsed":809102,"subject_id":"88373","group":"Group2"},{"task":"memory_phase","broad_category":"M","image_png":"M_Hornfels_08.png","image_id":216,"category_name":"Hornfels","category":14,"distinct_rating":2.9,"rt":null,"stimulus":"Stimuli_Rocks480/M_Hornfels_08.png","response":null,"trial_type":"image-keyboard-response","trial_index":305,"plugin_version":"2.1.0","time_elapsed":811624,"subject_id":"88373","group":"Group2"},{"rt":null,"stimulus":"<p style=\"font-size: 50px; margin: 0; text-align: center;\">+</p>","response":null,"trial_type":"html-keyboard-response","trial_index":306,"plugin_version":"2.1.0","time_elapsed":812627,"subject_id":"88373","group":"Group2"},{"task":"memory_phase","broad_category":"I","image_png":"I_Andesite_14.png","image_id":14,"category_name":"Andesite","category":1,"distinct_rating":4.47,"rt":null,"stimulus":"Stimuli_Rocks480/I_Andesite_14.png","response":null,"trial_type":"image-keyboard-response","trial_index":307,"plugin_version":"2.1.0","time_elapsed":815149,"subject_id":"88373","group":"Group2"},{"rt":null,"stimulus":"<p style=\"font-size: 50px; margin: 0; text-align: center;\">+</p>","response":null,"trial_type":"html-keyboard-response","trial_index":308,"plugin_version":"2.1.0","time_elapsed":816152,"subject_id":"88373","group":"Group2"},{"task":"memory_phase","broad_category":"M","image_png":"M_Migmatite_10.png","image_id":250,"category_name":"Migmatite","category":16,"distinct_rating":3.3,"rt":null,"stimulus":"Stimuli_Rocks480/M_Migmatite_10.png","response":null,"trial_type":"image-keyboard-response","trial_index":309,"plugin_version":"2.1.0","time_elapsed":818675,"subject_id":"88373","group":"Group2"},{"rt":null,"stimulus":"<p style=\"font-size: 50px; margin: 0; text-align: center;\">+</p>","response":null,"trial_type":"html-keyboard-response","trial_index":310,"plugin_version":"2.1.0","time_elapsed":819678,"subject_id":"88373","group":"Group2"},{"task":"memory_phase","broad_category":"S","image_png":"S_Bituminous Coal_12.png","image_id":332,"category_name":"Bituminous Coal","category":21,"distinct_rating":3.5,"rt":null,"stimulus":"Stimuli_Rocks480/S_Bituminous Coal_12.png","response":null,"trial_type":"image-keyboard-response","trial_index":311,"plugin_version":"2.1.0","time_elapsed":822200,"subject_id":"88373","group":"Group2"},{"rt":null,"stimulus":"<p style=\"font-size: 50px; margin: 0; text-align: center;\">+</p>","response":null,"trial_type":"html-keyboard-response","trial_index":312,"plugin_version":"2.1.0","time_elapsed":823202,"subject_id":"88373","group":"Group2"},{"task":"memory_phase","broad_category":"I","image_png":"I_Granite_02.png","image_id":66,"category_name":"Granite","category":5,"distinct_rating":3.29,"rt":null,"stimulus":"Stimuli_Rocks480/I_Granite_02.png","response":null,"trial_type":"image-keyboard-response","trial_index":313,"plugin_version":"2.1.0","time_elapsed":825729,"subject_id":"88373","group":"Group2"},{"rt":null,"stimulus":"<p style=\"font-size: 50px; margin: 0; text-align: center;\">+</p>","response":null,"trial_type":"html-keyboard-response","trial_index":314,"plugin_version":"2.1.0","time_elapsed":826732,"subject_id":"88373","group":"Group2"},{"task":"memory_phase","broad_category":"S","image_png":"S_Dolomite_02.png","image_id":386,"category_name":"Dolomite","category":25,"distinct_rating":5.49,"rt":null,"stimulus":"Stimuli_Rocks480/S_Dolomite_02.png","response":null,"trial_type":"image-keyboard-response","trial_index":315,"plugin_version":"2.1.0","time_elapsed":829257,"subject_id":"88373","group":"Group2"},{"rt":null,"stimulus":"<p style=\"font-size: 50px; margin: 0; text-align: center;\">+</p>","response":null,"trial_type":"html-keyboard-response","trial_index":316,"plugin_version":"2.1.0","time_elapsed":830260,"subject_id":"88373","group":"Group2"},{"task":"memory_phase","broad_category":"S","image_png":"S_Sandstone_14.png","image_id":462,"category_name":"Sandstone","category":29,"distinct_rating":2.57,"rt":null,"stimulus":"Stimuli_Rocks480/S_Sandstone_14.png","response":null,"trial_type":"image-keyboard-response","trial_index":317,"plugin_version":"2.1.0","time_elapsed":832776,"subject_id":"88373","group":"Group2"},{"rt":null,"stimulus":"<p style=\"font-size: 50px; margin: 0; text-align: center;\">+</p>","response":null,"trial_type":"html-keyboard-response","trial_index":318,"plugin_version":"2.1.0","time_elapsed":833778,"subject_id":"88373","group":"Group2"},{"task":"memory_phase","broad_category":"I","image_png":"I_Obsidian_06.png","image_id":86,"category_name":"Obsidian","category":6,"distinct_rating":8.01,"rt":null,"stimulus":"Stimuli_Rocks480/I_Obsidian_06.png","response":null,"trial_type":"image-keyboard-response","trial_index":319,"plugin_version":"2.1.0","time_elapsed":836306,"subject_id":"88373","group":"Group2"},{"rt":null,"stimulus":"<p style=\"font-size: 50px; margin: 0; text-align: center;\">+</p>","response":null,"